{
    "resourceType": "Bundle",
    "entry": [
        {
            "resource": {
                "resourceType": "Composition",
                "title": "Antrag",
                "id": "15816326-7354-4789-9a8b-2369ba8cadb5",
                "meta": {
                    "profile": [
                        "http://uk-koeln.de/fhir/StructureDefinition/Composition/nNGM/Antrag-pseudonymisiert"
                    ]
                },
                "status": "final",
                "identifier": {
                    "system": "http://uk-koeln.de/NamingSystem/nNGM/fallnummer",
                    "value": "1"
                },
                "type": {
                    "coding": [
                        {
                            "system": "http://uk-koeln.de/fhir/CodeSystem/nngm/compositions",
                            "code": "antrag"
                        }
                    ]
                },
                "category": [
                    {
                        "coding": [
                            {
                                "system": "http://uk-koeln.de/fhir/CodeSystem/nngm/composition-category",
                                "code": "idat"
                            }
                        ]
                    }
                ],
                "subject": {
                    "reference": "http://localhost:4080/administration/d5459b35-72c5-45e8-96df-c502c415554e",
                    "identifier": {
                        "system": "http://uk-koeln.de/fhir/NamingSystem/nNGM/patient-identifier",
                        "value": "t5Bny6kW"
                    }
                },
                "date": "2021-01-04T11:47:12+01:00",
                "author": [
                    {
                        "reference": "https://clinicalsite.org/person/38"
                    }
                ],
                "section": [
                    {
                        "title": "basisangaben",
                        "code": {
                            "coding": [
                                {
                                    "system": "http://uk-koeln.de/fhir/CodeSystem/nngm/sections",
                                    "code": "basisangaben"
                                }
                            ]
                        },
                        "entry": [
                            {
                                "reference": "http://localhost:4080/administration/Organization/e20f8133-ccfc-4297-b1d5-b3ccb301097a"
                            },
                            {
                                "reference": "http://localhost:4080/administration/ServiceRequest/36a04624-8a4d-4644-a183-fa87faa6262d"
                            },
                            {
                                "reference": "http://localhost:4080/administration/Coverage/28f6c323-7902-4bbc-9f0c-e361814757ee"
                            },
                            {
                                "reference": "http://localhost:4080/administration/Observation/ba26c207-ab37-4073-a8b6-9dbacccaa86a"
                            },
                            {
                                "reference": "http://localhost:4080/administration/Observation/5a3595ae-befc-4f76-af6a-1c14791a7237"
                            },
                            {
                                "reference": "http://localhost:4080/administration/Observation/f1696cbc-b879-45f0-ae11-6527eea78cd2"
                            },
                            {
                                "reference": "http://localhost:4080/administration/Observation/2239284a-9c62-4816-9ef0-11914956c098"
                            },
                            {
                                "reference": "http://localhost:4080/administration/Practitioner/eca4d96b-fe28-4ebb-b6fa-27248daca074"
                            },
                            {
                                "reference": "http://localhost:4080/administration/Consent/8b2b99e2-6053-40c4-b8f8-7943424d2116"
                            },
                            {
                                "reference": "http://localhost:4080/administration/Consent/6e99057d-8dee-4f70-b9cc-6f86bc8cdebc"
                            },
                            {
                                "reference": "http://localhost:4080/administration/Consent/35dc3e59-8fba-402a-bce6-9670d35ae354"
                            },
                            {
                                "reference": "http://localhost:4080/administration/Consent/c35ac143-e95a-487e-bdf7-783310c78407"
                            },
                            {
                                "reference": "http://localhost:4080/administration/Consent/b909ae44-c425-4e34-90d7-ffe7b43c56ff"
                            },
                            {
                                "reference": "http://localhost:4080/administration/Consent/d07555f2-2552-46c1-a826-45c1efd3b21b"
                            },
                            {
                                "reference": "http://localhost:4080/administration/Consent/deecaf3b-c01b-47e3-96bd-5ef0e9bd6bb6"
                            },
                            {
                                "reference": "http://localhost:4080/administration/Consent/fa23bcbc-739a-4d65-bd0b-73d3b7dfadaa"
                            },
                            {
                                "reference": "http://localhost:4080/administration/Consent/6a0fac3e-847b-476a-a8e1-54a3ae3c087d"
                            },
                            {
                                "reference": "http://localhost:4080/administration/Consent/1ddb93e6-661f-46c4-96b3-d868a2991689"
                            },
                            {
                                "reference": "http://localhost:4080/administration/Consent/edd20729-3dc9-4baf-a965-ed7dc0cef026"
                            },
                            {
                                "reference": "http://localhost:4080/administration/Consent/ebca0c4f-f98c-4a5d-a010-265b704b34fc"
                            },
                            {
                                "reference": "http://localhost:4080/administration/Consent/29045a59-d7ea-424b-a5d5-ebb80487a935"
                            },
                            {
                                "reference": "http://localhost:4080/administration/Consent/dcb974a7-4047-46d5-a70c-abb892a4f9ed"
                            },
                            {
                                "reference": "http://localhost:4080/administration/Consent/650b1d55-2cee-4bc0-b711-b4ffd4e6fed8"
                            }
                        ]
                    },
                    {
                        "title": "biopsy",
                        "code": {
                            "coding": [
                                {
                                    "system": "http://uk-koeln.de/fhir/CodeSystem/nngm/sections",
                                    "code": "biopsie"
                                }
                            ]
                        },
                        "entry": [
                            {
                                "identifier": {
                                    "system": "http://uk-koeln.de/NamingSystem/nNGM/formularId",
                                    "value": "1"
                                }
                            }
                        ],
                        "section": [
                            {
                                "title": "anforderung",
                                "code": {
                                    "coding": [
                                        {
                                            "system": "http://uk-koeln.de/fhir/CodeSystem/nngm/sections",
                                            "code": "anforderung"
                                        }
                                    ]
                                },
                                "entry": [
                                    {
                                        "reference": "http://localhost:4080/administration/ServiceRequest/4931ab88-92f8-42ed-b772-181c93614968"
                                    },
                                    {
                                        "reference": "http://localhost:4080/administration/Observation/76d47e6a-7452-4270-9062-2aa6eb25aff1"
                                    },
                                    {
                                        "reference": "http://localhost:4080/administration/Organization/3a73bfd0-d67b-4536-999e-f9c40d4264ad"
                                    }
                                ]
                            },
                            {
                                "title": "tnm",
                                "code": {
                                    "coding": [
                                        {
                                            "system": "http://uk-koeln.de/fhir/CodeSystem/nngm/sections",
                                            "code": "tnm"
                                        }
                                    ]
                                },
                                "entry": [
                                    {
                                        "reference": "http://localhost:4080/administration/Observation/dd76cf93-fffa-4787-8e00-4d7d6dadc48e"
                                    }
                                ]
                            },
                            {
                                "title": "resistenztestung",
                                "code": {
                                    "coding": [
                                        {
                                            "system": "http://uk-koeln.de/fhir/CodeSystem/nngm/sections",
                                            "code": "resistenztestung"
                                        }
                                    ]
                                },
                                "entry": [
                                    {
                                        "reference": "http://localhost:4080/administration/Observation/4a230537-8e3b-46c1-8c36-cb2a9f0fa591"
                                    },
                                    {
                                        "reference": "http://localhost:4080/administration/Observation/f38ad6a4-bc94-4479-bdad-c453e9239466"
                                    },
                                    {
                                        "reference": "http://localhost:4080/administration/Observation/662e8acc-db17-49d1-afa8-18cfe1f3c522"
                                    }
                                ]
                            },
                            {
                                "title": "vorbefund",
                                "code": {
                                    "coding": [
                                        {
                                            "system": "http://uk-koeln.de/fhir/CodeSystem/nngm/sections",
                                            "code": "vorbefund"
                                        }
                                    ]
                                },
                                "entry": [
                                    {
                                        "reference": "http://localhost:4080/administration/Observation/ea2ab698-192d-4940-a990-16bc2a898fba"
                                    },
                                    {
                                        "reference": "http://localhost:4080/administration/Observation/f6919d06-29ed-4724-98e8-c9072c097912"
                                    },
                                    {
                                        "reference": "http://localhost:4080/administration/Observation/e56aa97b-a959-4c18-aff2-4c92b70de3bf"
                                    },
                                    {
                                        "reference": "http://localhost:4080/administration/Observation/4d37c2f3-4146-48ad-9a30-3804ec5a8286"
                                    },
                                    {
                                        "reference": "http://localhost:4080/administration/Observation/066b652a-6bb5-4510-ba04-d1e6837be01f"
                                    },
                                    {
                                        "reference": "http://localhost:4080/administration/Observation/08941beb-5083-4308-b51b-c12e4ee3bae1"
                                    },
                                    {
                                        "reference": "http://localhost:4080/administration/Observation/a748d8b9-9f30-4541-8d34-ae8be881725b"
                                    },
                                    {
                                        "reference": "http://localhost:4080/administration/Observation/071f5138-9d4f-4231-aa91-8e67fcf7dfee"
                                    },
                                    {
                                        "reference": "http://localhost:4080/administration/DiagnosticReport/f9f2210e-b125-4ac9-a617-006d14c78c38"
                                    },
                                    {
                                        "reference": "http://localhost:4080/administration/Observation/87696c76-a97c-4aa6-847e-28e4109dd1fe"
                                    },
                                    {
                                        "reference": "http://localhost:4080/administration/Observation/378d04cf-f918-4138-9fd0-63c13e69e823"
                                    },
                                    {
                                        "reference": "http://localhost:4080/administration/Observation/19e46c4a-01e6-4331-948e-42e3d89f4b2b"
                                    },
                                    {
                                        "reference": "http://localhost:4080/administration/Observation/0e2a2245-a696-4ea1-97e3-9b378c1c04ac"
                                    }
                                ]
                            }
                        ]
                    },
                    {
                        "title": "biopsy",
                        "code": {
                            "coding": [
                                {
                                    "system": "http://uk-koeln.de/fhir/CodeSystem/nngm/sections",
                                    "code": "biopsie"
                                }
                            ]
                        },
                        "entry": [
                            {
                                "identifier": {
                                    "system": "http://uk-koeln.de/NamingSystem/nNGM/formularId",
                                    "value": "2"
                                }
                            }
                        ],
                        "section": [
                            {
                                "title": "anforderung",
                                "code": {
                                    "coding": [
                                        {
                                            "system": "http://uk-koeln.de/fhir/CodeSystem/nngm/sections",
                                            "code": "anforderung"
                                        }
                                    ]
                                },
                                "entry": [
                                    {
                                        "reference": "http://localhost:4080/administration/ServiceRequest/16f22bbb-21dd-452f-a2dd-488fe16c73bd"
                                    },
                                    {
                                        "reference": "http://localhost:4080/administration/Observation/6c7f1bfa-b462-4a91-8399-3de421c0fcad"
                                    },
                                    {
                                        "reference": "http://localhost:4080/administration/Organization/07e54e0d-8d4f-4811-b82d-e1dd13a67597"
                                    }
                                ]
                            }
                        ]
                    },
                    {
                        "title": "biopsy",
                        "code": {
                            "coding": [
                                {
                                    "system": "http://uk-koeln.de/fhir/CodeSystem/nngm/sections",
                                    "code": "biopsie"
                                }
                            ]
                        },
                        "entry": [
                            {
                                "identifier": {
                                    "system": "http://uk-koeln.de/NamingSystem/nNGM/formularId",
                                    "value": "3"
                                }
                            }
                        ],
                        "section": [
                            {
                                "title": "anforderung",
                                "code": {
                                    "coding": [
                                        {
                                            "system": "http://uk-koeln.de/fhir/CodeSystem/nngm/sections",
                                            "code": "anforderung"
                                        }
                                    ]
                                },
                                "entry": [
                                    {
                                        "reference": "http://localhost:4080/administration/ServiceRequest/e63bae16-6a42-4abb-8245-8b569ed0a21d"
                                    },
                                    {
                                        "reference": "http://localhost:4080/administration/Observation/1020fd3a-6635-4918-b6a2-0c19768db24d"
                                    }
                                ]
                            },
                            {
                                "title": "resistenztestung",
                                "code": {
                                    "coding": [
                                        {
                                            "system": "http://uk-koeln.de/fhir/CodeSystem/nngm/sections",
                                            "code": "resistenztestung"
                                        }
                                    ]
                                },
                                "entry": [
                                    {
                                        "reference": "http://localhost:4080/administration/Observation/049c5d41-fa31-49e1-89c6-cab2183e3cab"
                                    },
                                    {
                                        "reference": "http://localhost:4080/administration/Observation/a4fc38ff-d32b-4e04-b613-54ca7673da42"
                                    }
                                ]
                            },
                            {
                                "title": "vorbefund",
                                "code": {
                                    "coding": [
                                        {
                                            "system": "http://uk-koeln.de/fhir/CodeSystem/nngm/sections",
                                            "code": "vorbefund"
                                        }
                                    ]
                                },
                                "entry": [
                                    {
                                        "reference": "http://localhost:4080/administration/Observation/9e30651a-5d4f-4bca-952c-808203ad4e92"
                                    },
                                    {
                                        "reference": "http://localhost:4080/administration/Observation/360e6f82-5957-4089-b05f-bba3724caad7"
                                    },
                                    {
                                        "reference": "http://localhost:4080/administration/Observation/22190439-9e46-4fb4-9c4a-b39bf9be0a1c"
                                    },
                                    {
                                        "reference": "http://localhost:4080/administration/Observation/f6f4f6c6-04b0-4ea2-a415-f9cfcdbea609"
                                    },
                                    {
                                        "reference": "http://localhost:4080/administration/DiagnosticReport/4e041252-e01c-4f49-adac-d08950b69f2e"
                                    },
                                    {
                                        "reference": "http://localhost:4080/administration/Observation/2a71e9e1-0568-4900-9104-7092be3b8d61"
                                    },
                                    {
                                        "reference": "http://localhost:4080/administration/Observation/48f036b4-062a-4ded-800d-e9dbb2af7546"
                                    },
                                    {
                                        "reference": "http://localhost:4080/administration/Observation/70b56f76-108b-45d3-b68d-a853ddc5299c"
                                    },
                                    {
                                        "reference": "http://localhost:4080/administration/Observation/e5be56ac-6fc4-40da-973d-e19e10055d7f"
                                    },
                                    {
                                        "reference": "http://localhost:4080/administration/Observation/3224627f-ea20-48f1-876d-d553213ab5d0"
                                    }
                                ]
                            }
                        ]
                    }
                ]
            }
        },
        {
            "resource": {
                "resourceType": "Organization",
                "meta": {
                    "profile": [
                        "http://clinicalsite.org/fhir/StructureDefinition/organizationalunit"
                    ]
                },
                "identifier": [
                    {
                        "system": "http://healex.systems/fhir/NamingSystem/nNGMnetzwerkzentrumid",
                        "value": "3544"
                    }
                ],
                "name": "Würzburg",
                "contact": [
                    {
                        "address": {
                            "text": "Würzburg\r\n\r\nUniversitätsklinikum Würzburg\r\nJosef Schneider Str. 6\r\nHaus C16\r\n97080 Würzburg\r\n+49 (0) 931 201 35359\r\n+49 (0) 931 201 35350"
                        }
                    }
                ],
                "id": "e20f8133-ccfc-4297-b1d5-b3ccb301097a"
            },
            "request": {
                "method": "PUT",
                "url": "Organization/e20f8133-ccfc-4297-b1d5-b3ccb301097a"
            }
        },
        {
            "resource": {
                "resourceType": "ServiceRequest",
                "meta": {
                    "profile": [
                        "http://uk-koeln.de/fhir/StructureDefinition/ServiceRequest/nNGM/tumorboard"
                    ]
                },
                "status": "active",
                "intent": "proposal",
                "code": {
                    "coding": [
                        {
                            "system": "http://ncit.nci.nih.gov",
                            "code": "C19165"
                        }
                    ]
                },
                "requester": {
                    "reference": "http://localhost:4080/administration/",
                    "_reference": {
                        "extension": [
                            {
                                "url": "http://hl7.org/fhir/StructureDefinition/data-absent-reason",
                                "valueCode": "not-asked"
                            }
                        ]
                    },
                    "extension": [
                        {
                            "url": "http://uk-koeln.de/fhir/StructureDefinition/Extension/nNGM/vorstellung-tmb",
                            "valueBoolean": true
                        },
                        {
                            "url": "http://uk-koeln.de/fhir/StructureDefinition/Extension/nNGM/persoenlicheTeilnahme",
                            "valueBoolean": true
                        }
                    ]
                },
                "subject": {
                    "reference": "http://localhost:4080/administration/Patient/d5459b35-72c5-45e8-96df-c502c415554e"
                },
                "id": "36a04624-8a4d-4644-a183-fa87faa6262d",
                "performer": [
                    {
                        "reference": "http://localhost:4080/administration/Organization/e20f8133-ccfc-4297-b1d5-b3ccb301097a"
                    }
                ],
                "authoredOn": "2020-10-10",
                "encounter": {
                    "extension": [
                        {
                            "url": "http://uk-koeln.de/fhir/StructureDefinition/Extension/nNGM/aufenthaltsart",
                            "valueCodeableConcept": {
                                "coding": [
                                    {
                                        "system": "http://uk-koeln.de/fhir/ValueSet/nngm/aufenthaltsart",
                                        "code": "IMP",
                                        "display": "inpatient encounter"
                                    }
                                ]
                            }
                        }
                    ]
                },
                "reasonReference": [
                    {
                        "reference": "http://localhost:4080/administration/Observation/f1696cbc-b879-45f0-ae11-6527eea78cd2"
                    },
                    {
                        "reference": "http://localhost:4080/administration/Observation/5a3595ae-befc-4f76-af6a-1c14791a7237"
                    },
                    {
                        "reference": "http://localhost:4080/administration/Observation/ba26c207-ab37-4073-a8b6-9dbacccaa86a"
                    },
                    {
                        "reference": "http://localhost:4080/administration/Observation/2239284a-9c62-4816-9ef0-11914956c098"
                    }
                ]
            },
            "request": {
                "method": "PUT",
                "url": "ServiceRequest/36a04624-8a4d-4644-a183-fa87faa6262d"
            }
        },
        {
            "resource": {
                "resourceType": "Coverage",
                "meta": {
                    "profile": [
                        "http://uk-koeln.de/fhir/StructureDefinition/Coverage/nNGM"
                    ]
                },
                "status": "active",
                "beneficiary": {
                    "reference": "http://localhost:4080/administration/Patient/d5459b35-72c5-45e8-96df-c502c415554e"
                },
                "payor": [
                    {
                        "reference": "http://localhost:4080/administration/Organization/e20f8133-ccfc-4297-b1d5-b3ccb301097a"
                    },
                    {
                        "extension": [
                            {
                                "url": "http://uk-koeln.de/fhir/StructureDefinition/Extension/nNGM/abrechnungsinformation",
                                "valueCodeableConcept": {
                                    "coding": [
                                        {
                                            "system": "http://uk-koeln.de/fhir/ValueSet/nngm/abrechnungsinformation",
                                            "code": "§116B/externer Fall"
                                        }
                                    ]
                                }
                            }
                        ]
                    },
                    {
                        "display": "actimonda krankenkasse"
                    }
                ],
                "type": {
                    "coding": [
                        {
                            "system": "http://uk-koeln.de/fhir/ValueSet/nngm/krankenkassen-typ",
                            "code": "GKV"
                        }
                    ]
                },
                "extension": [
                    {
                        "url": "http://uk-koeln.de/fhir/StructureDefinition/Extension/nNGM/kooperationsvereinbarung",
                        "valueBoolean": false
                    }
                ],
                "id": "28f6c323-7902-4bbc-9f0c-e361814757ee"
            },
            "request": {
                "method": "PUT",
                "url": "Coverage/28f6c323-7902-4bbc-9f0c-e361814757ee"
            }
        },
        {
            "resource": {
                "resourceType": "Observation",
                "meta": {
                    "profile": [
                        "http://uk-koeln.de/fhir/StructureDefinition/Observation/nNGM/koerpergroesse"
                    ]
                },
                "status": "final",
                "category": [
                    {
                        "coding": [
                            {
                                "system": "http://terminology.hl7.org/CodeSystem/observation-category",
                                "code": "vital-signs"
                            }
                        ]
                    }
                ],
                "code": {
                    "coding": [
                        {
                            "system": "http://loinc.org",
                            "code": "8302-2"
                        }
                    ]
                },
                "subject": {
                    "reference": "http://localhost:4080/administration/Patient/d5459b35-72c5-45e8-96df-c502c415554e"
                },
                "_effectiveDateTime": {
                    "extension": [
                        {
                            "url": "http://hl7.org/fhir/StructureDefinition/data-absent-reason",
                            "valueCode": "not-asked"
                        }
                    ]
                },
                "performer": [
                    {
                        "reference": "http://localhost:4080/administration/Practitioner/eca4d96b-fe28-4ebb-b6fa-27248daca074"
                    },
                    {
                        "reference": "http://localhost:4080/administration/Organization/e20f8133-ccfc-4297-b1d5-b3ccb301097a"
                    }
                ],
                "valueQuantity": {
                    "system": "http://unitsofmeasure.org",
                    "unit": "centimeter",
                    "code": "cm",
                    "value": 12
                },
                "id": "ba26c207-ab37-4073-a8b6-9dbacccaa86a"
            },
            "request": {
                "method": "PUT",
                "url": "Observation/ba26c207-ab37-4073-a8b6-9dbacccaa86a"
            }
        },
        {
            "resource": {
                "resourceType": "Observation",
                "meta": {
                    "profile": [
                        "http://uk-koeln.de/fhir/StructureDefinition/Observation/nNGM/koerpergewicht"
                    ]
                },
                "status": "final",
                "category": [
                    {
                        "coding": [
                            {
                                "system": "http://terminology.hl7.org/CodeSystem/observation-category",
                                "code": "vital-signs"
                            }
                        ]
                    }
                ],
                "code": {
                    "coding": [
                        {
                            "system": "http://loinc.org",
                            "code": "29463-7"
                        }
                    ]
                },
                "subject": {
                    "reference": "http://localhost:4080/administration/Patient/d5459b35-72c5-45e8-96df-c502c415554e"
                },
                "_effectiveDateTime": {
                    "extension": [
                        {
                            "url": "http://hl7.org/fhir/StructureDefinition/data-absent-reason",
                            "valueCode": "not-asked"
                        }
                    ]
                },
                "performer": [
                    {
                        "reference": "http://localhost:4080/administration/Practitioner/eca4d96b-fe28-4ebb-b6fa-27248daca074"
                    },
                    {
                        "reference": "http://localhost:4080/administration/Organization/e20f8133-ccfc-4297-b1d5-b3ccb301097a"
                    }
                ],
                "valueQuantity": {
                    "system": "http://unitsofmeasure.org",
                    "unit": "kilogram",
                    "code": "kg",
                    "value": 12.0
                },
                "id": "5a3595ae-befc-4f76-af6a-1c14791a7237"
            },
            "request": {
                "method": "PUT",
                "url": "Observation/5a3595ae-befc-4f76-af6a-1c14791a7237"
            }
        },
        {
            "resource": {
                "resourceType": "Observation",
                "meta": {
                    "profile": [
                        "http://uk-koeln.de/fhir/StructureDefinition/Observation/nNGM/ecog"
                    ]
                },
                "status": "final",
                "category": [
                    {
                        "coding": [
                            {
                                "system": "http://hl7.org/fhir/ValueSet/observation-category",
                                "code": "survey"
                            }
                        ]
                    }
                ],
                "code": {
                    "coding": [
                        {
                            "system": "http://loinc.org",
                            "code": "89247-1"
                        }
                    ]
                },
                "subject": {
                    "reference": "http://localhost:4080/administration/Patient/d5459b35-72c5-45e8-96df-c502c415554e"
                },
                "performer": [
                    {
                        "reference": "http://localhost:4080/administration/Practitioner/eca4d96b-fe28-4ebb-b6fa-27248daca074"
                    },
                    {
                        "reference": "http://localhost:4080/administration/Organization/e20f8133-ccfc-4297-b1d5-b3ccb301097a"
                    }
                ],
                "valueCodeableConcept": {
                    "coding": [
                        {
                            "system": "http://uk-koeln.de/fhir/ValueSet/ecog",
                            "code": "0",
                            "display": "0 - normale, uneingeschränkte Aktivität, wie vor der Erkrankung"
                        }
                    ]
                },
                "id": "f1696cbc-b879-45f0-ae11-6527eea78cd2"
            },
            "request": {
                "method": "PUT",
                "url": "Observation/f1696cbc-b879-45f0-ae11-6527eea78cd2"
            }
        },
        {
            "resource": {
                "resourceType": "Observation",
                "meta": {
                    "profile": [
                        "http://uk-koeln.de/fhir/StructureDefinition/Observation/nNGM/raucherstatus"
                    ]
                },
                "status": "final",
                "category": [
                    {
                        "coding": [
                            {
                                "system": "http://hl7.org/fhir/observation-category",
                                "code": "social-history"
                            }
                        ]
                    }
                ],
                "code": {
                    "coding": [
                        {
                            "system": "http://loinc.org",
                            "code": "72166-2"
                        }
                    ]
                },
                "subject": {
                    "reference": "http://localhost:4080/administration/Patient/d5459b35-72c5-45e8-96df-c502c415554e"
                },
                "performer": [
                    {
                        "reference": "http://localhost:4080/administration/Practitioner/eca4d96b-fe28-4ebb-b6fa-27248daca074"
                    },
                    {
                        "reference": "http://localhost:4080/administration/Organization/e20f8133-ccfc-4297-b1d5-b3ccb301097a"
                    }
                ],
                "valueCodeableConcept": {
                    "coding": [
                        {
                            "system": "http://uk-koeln.de/fhir/ValueSet/nngm/raucherstatus",
                            "code": "LA15920-4",
                            "display": "Former smoker"
                        }
                    ]
                },
                "component": [
                    {
                        "code": {
                            "text": "Nichtraucher Seit",
                            "coding": [
                                {
                                    "system": "http://ncit.nci.nih.gov",
                                    "code": "C127065"
                                }
                            ]
                        },
                        "valueDateTime": "1994-10-01"
                    },
                    {
                        "code": {
                            "text": "Packungen Pro Jahr",
                            "coding": [
                                {
                                    "system": "http://ncit.nci.nih.gov",
                                    "code": "C127065"
                                }
                            ]
                        },
                        "valueQuantity": {
                            "unit": "pack years",
                            "system": "http://unitsofmeasure.org",
                            "code": "{PackYears}",
                            "value": 3
                        }
                    }
                ],
                "id": "2239284a-9c62-4816-9ef0-11914956c098"
            },
            "request": {
                "method": "PUT",
                "url": "Observation/2239284a-9c62-4816-9ef0-11914956c098"
            }
        },
        {
            "resource": {
                "resourceType": "Practitioner",
                "meta": {
                    "profile": [
                        "http://uk-koeln.de/fhir/StructureDefinition/Practitioner/nNGM"
                    ]
                },
                "name": [
                    {
                        "extension": [
                            {
                                "url": "http://hl7.org/fhir/StructureDefinition/data-absent-reason",
                                "valueCode": "not-asked"
                            }
                        ]
                    }
                ],
                "telecom": [
                    {
                        "system": "email",
                        "value": "foo@bar.com"
                    }
                ],
                "identifier": [
                    {
                        "system": "http://uk-koeln.de/NamingSystem/nNGM/practitionerId",
                        "value": "12319"
                    }
                ],
                "address": [
                    {
                        "text": "13123"
                    }
                ],
                "id": "eca4d96b-fe28-4ebb-b6fa-27248daca074"
            },
            "request": {
                "method": "PUT",
                "url": "Practitioner/eca4d96b-fe28-4ebb-b6fa-27248daca074"
            }
        },
        {
            "resource": {
                "resourceType": "Consent",
                "meta": {
                    "profile": [
                        "http://uk-koeln.de/fhir/StructureDefinition/Consent/nNGM"
                    ]
                },
                "status": "active",
                "scope": {
                    "coding": [
                        {
                            "system": "http://terminology.hl7.org/CodeSystem/consentscope",
                            "code": "patient-privacy"
                        }
                    ]
                },
                "category": [
                    {
                        "coding": [
                            {
                                "system": "http://loinc.org",
                                "code": "59284-0"
                            }
                        ]
                    }
                ],
                "patient": {
                    "reference": "http://localhost:4080/administration/Patient/d5459b35-72c5-45e8-96df-c502c415554e"
                },
                "performer": [
                    {
                        "reference": "http://localhost:4080/administration/Organization/e20f8133-ccfc-4297-b1d5-b3ccb301097a"
                    }
                ],
                "provision": {
                    "type": "permit"
                },
                "policyRule": {
                    "coding": [
                        {
                            "system": "http://uk-koeln.de/fhir/ValueSet/nngm/nngm-consent-policy",
                            "code": "TE"
                        }
                    ]
                },
                "dateTime": "2020-10-26",
                "id": "8b2b99e2-6053-40c4-b8f8-7943424d2116"
            },
            "request": {
                "method": "PUT",
                "url": "Consent/8b2b99e2-6053-40c4-b8f8-7943424d2116"
            }
        },
        {
            "resource": {
                "resourceType": "Consent",
                "meta": {
                    "profile": [
                        "http://uk-koeln.de/fhir/StructureDefinition/Consent/nNGM"
                    ]
                },
                "status": "active",
                "scope": {
                    "coding": [
                        {
                            "system": "http://terminology.hl7.org/CodeSystem/consentscope",
                            "code": "patient-privacy"
                        }
                    ]
                },
                "category": [
                    {
                        "coding": [
                            {
                                "system": "http://loinc.org",
                                "code": "59284-0"
                            }
                        ]
                    }
                ],
                "patient": {
                    "reference": "http://localhost:4080/administration/Patient/d5459b35-72c5-45e8-96df-c502c415554e"
                },
                "performer": [
                    {
                        "reference": "http://localhost:4080/administration/Organization/e20f8133-ccfc-4297-b1d5-b3ccb301097a"
                    }
                ],
                "provision": {
                    "type": "permit"
                },
                "policyRule": {
                    "coding": [
                        {
                            "system": "http://uk-koeln.de/fhir/ValueSet/nngm/nngm-consent-policy",
                            "code": "DS"
                        }
                    ]
                },
                "dateTime": "2020-10-26",
                "id": "6e99057d-8dee-4f70-b9cc-6f86bc8cdebc"
            },
            "request": {
                "method": "PUT",
                "url": "Consent/6e99057d-8dee-4f70-b9cc-6f86bc8cdebc"
            }
        },
        {
            "resource": {
                "resourceType": "Consent",
                "meta": {
                    "profile": [
                        "http://uk-koeln.de/fhir/StructureDefinition/Consent/nNGM"
                    ]
                },
                "status": "active",
                "scope": {
                    "coding": [
                        {
                            "system": "http://terminology.hl7.org/CodeSystem/consentscope",
                            "code": "patient-privacy"
                        }
                    ]
                },
                "category": [
                    {
                        "coding": [
                            {
                                "system": "http://loinc.org",
                                "code": "59284-0"
                            }
                        ]
                    }
                ],
                "patient": {
                    "reference": "http://localhost:4080/administration/Patient/d5459b35-72c5-45e8-96df-c502c415554e"
                },
                "performer": [
                    {
                        "reference": "http://localhost:4080/administration/Organization/e20f8133-ccfc-4297-b1d5-b3ccb301097a"
                    }
                ],
                "provision": {
                    "type": "permit"
                },
                "policyRule": {
                    "coding": [
                        {
                            "system": "http://uk-koeln.de/fhir/ValueSet/nngm/nngm-consent-policy",
                            "code": "1a"
                        }
                    ]
                },
                "dateTime": "2020-10-26",
                "id": "35dc3e59-8fba-402a-bce6-9670d35ae354"
            },
            "request": {
                "method": "PUT",
                "url": "Consent/35dc3e59-8fba-402a-bce6-9670d35ae354"
            }
        },
        {
            "resource": {
                "resourceType": "Consent",
                "meta": {
                    "profile": [
                        "http://uk-koeln.de/fhir/StructureDefinition/Consent/nNGM"
                    ]
                },
                "status": "active",
                "scope": {
                    "coding": [
                        {
                            "system": "http://terminology.hl7.org/CodeSystem/consentscope",
                            "code": "patient-privacy"
                        }
                    ]
                },
                "category": [
                    {
                        "coding": [
                            {
                                "system": "http://loinc.org",
                                "code": "59284-0"
                            }
                        ]
                    }
                ],
                "patient": {
                    "reference": "http://localhost:4080/administration/Patient/d5459b35-72c5-45e8-96df-c502c415554e"
                },
                "performer": [
                    {
                        "reference": "http://localhost:4080/administration/Organization/e20f8133-ccfc-4297-b1d5-b3ccb301097a"
                    }
                ],
                "provision": {
                    "type": "permit"
                },
                "policyRule": {
                    "coding": [
                        {
                            "system": "http://uk-koeln.de/fhir/ValueSet/nngm/nngm-consent-policy",
                            "code": "1b"
                        }
                    ]
                },
                "dateTime": "2020-10-26",
                "id": "c35ac143-e95a-487e-bdf7-783310c78407"
            },
            "request": {
                "method": "PUT",
                "url": "Consent/c35ac143-e95a-487e-bdf7-783310c78407"
            }
        },
        {
            "resource": {
                "resourceType": "Consent",
                "meta": {
                    "profile": [
                        "http://uk-koeln.de/fhir/StructureDefinition/Consent/nNGM"
                    ]
                },
                "status": "active",
                "scope": {
                    "coding": [
                        {
                            "system": "http://terminology.hl7.org/CodeSystem/consentscope",
                            "code": "patient-privacy"
                        }
                    ]
                },
                "category": [
                    {
                        "coding": [
                            {
                                "system": "http://loinc.org",
                                "code": "59284-0"
                            }
                        ]
                    }
                ],
                "patient": {
                    "reference": "http://localhost:4080/administration/Patient/d5459b35-72c5-45e8-96df-c502c415554e"
                },
                "performer": [
                    {
                        "reference": "http://localhost:4080/administration/Organization/e20f8133-ccfc-4297-b1d5-b3ccb301097a"
                    }
                ],
                "provision": {
                    "type": "permit"
                },
                "policyRule": {
                    "coding": [
                        {
                            "system": "http://uk-koeln.de/fhir/ValueSet/nngm/nngm-consent-policy",
                            "code": "2"
                        }
                    ]
                },
                "dateTime": "2020-10-26",
                "id": "b909ae44-c425-4e34-90d7-ffe7b43c56ff"
            },
            "request": {
                "method": "PUT",
                "url": "Consent/b909ae44-c425-4e34-90d7-ffe7b43c56ff"
            }
        },
        {
            "resource": {
                "resourceType": "Consent",
                "meta": {
                    "profile": [
                        "http://uk-koeln.de/fhir/StructureDefinition/Consent/nNGM"
                    ]
                },
                "status": "active",
                "scope": {
                    "coding": [
                        {
                            "system": "http://terminology.hl7.org/CodeSystem/consentscope",
                            "code": "patient-privacy"
                        }
                    ]
                },
                "category": [
                    {
                        "coding": [
                            {
                                "system": "http://loinc.org",
                                "code": "59284-0"
                            }
                        ]
                    }
                ],
                "patient": {
                    "reference": "http://localhost:4080/administration/Patient/d5459b35-72c5-45e8-96df-c502c415554e"
                },
                "provision": {
                    "type": "permit"
                },
                "policyRule": {
                    "coding": [
                        {
                            "system": "http://uk-koeln.de/fhir/ValueSet/nngm/nngm-consent-policy",
                            "code": "MD"
                        }
                    ]
                },
                "dateTime": "2020-10-26",
                "id": "d07555f2-2552-46c1-a826-45c1efd3b21b",
                "performer": [
                    {
                        "reference": "http://localhost:4080/administration/Organization/e20f8133-ccfc-4297-b1d5-b3ccb301097a"
                    }
                ]
            },
            "request": {
                "method": "PUT",
                "url": "Consent/d07555f2-2552-46c1-a826-45c1efd3b21b"
            }
        },
        {
            "resource": {
                "resourceType": "Consent",
                "meta": {
                    "profile": [
                        "http://uk-koeln.de/fhir/StructureDefinition/Consent/nNGM"
                    ]
                },
                "status": "active",
                "scope": {
                    "coding": [
                        {
                            "system": "http://terminology.hl7.org/CodeSystem/consentscope",
                            "code": "patient-privacy"
                        }
                    ]
                },
                "category": [
                    {
                        "coding": [
                            {
                                "system": "http://loinc.org",
                                "code": "59284-0"
                            }
                        ]
                    }
                ],
                "patient": {
                    "reference": "http://localhost:4080/administration/Patient/d5459b35-72c5-45e8-96df-c502c415554e"
                },
                "provision": {
                    "type": "permit"
                },
                "policyRule": {
                    "coding": [
                        {
                            "system": "http://uk-koeln.de/fhir/ValueSet/nngm/nngm-consent-policy",
                            "code": "ST"
                        }
                    ]
                },
                "dateTime": "2020-10-26",
                "id": "deecaf3b-c01b-47e3-96bd-5ef0e9bd6bb6",
                "performer": [
                    {
                        "reference": "http://localhost:4080/administration/Organization/e20f8133-ccfc-4297-b1d5-b3ccb301097a"
                    }
                ]
            },
            "request": {
                "method": "PUT",
                "url": "Consent/deecaf3b-c01b-47e3-96bd-5ef0e9bd6bb6"
            }
        },
        {
            "resource": {
                "resourceType": "Consent",
                "meta": {
                    "profile": [
                        "http://uk-koeln.de/fhir/StructureDefinition/Consent/nNGM"
                    ]
                },
                "status": "active",
                "scope": {
                    "coding": [
                        {
                            "system": "http://terminology.hl7.org/CodeSystem/consentscope",
                            "code": "patient-privacy"
                        }
                    ]
                },
                "category": [
                    {
                        "coding": [
                            {
                                "system": "http://loinc.org",
                                "code": "59284-0"
                            }
                        ]
                    }
                ],
                "patient": {
                    "reference": "http://localhost:4080/administration/Patient/d5459b35-72c5-45e8-96df-c502c415554e"
                },
                "provision": {
                    "type": "permit"
                },
                "policyRule": {
                    "coding": [
                        {
                            "system": "http://uk-koeln.de/fhir/ValueSet/nngm/nngm-consent-policy",
                            "code": "WPI"
                        }
                    ]
                },
                "dateTime": "2020-10-26",
                "id": "fa23bcbc-739a-4d65-bd0b-73d3b7dfadaa",
                "performer": [
                    {
                        "reference": "http://localhost:4080/administration/Organization/e20f8133-ccfc-4297-b1d5-b3ccb301097a"
                    }
                ]
            },
            "request": {
                "method": "PUT",
                "url": "Consent/fa23bcbc-739a-4d65-bd0b-73d3b7dfadaa"
            }
        },
        {
            "resource": {
                "resourceType": "Consent",
                "meta": {
                    "profile": [
                        "http://uk-koeln.de/fhir/StructureDefinition/Consent/nNGM"
                    ]
                },
                "status": "active",
                "scope": {
                    "coding": [
                        {
                            "system": "http://terminology.hl7.org/CodeSystem/consentscope",
                            "code": "patient-privacy"
                        }
                    ]
                },
                "category": [
                    {
                        "coding": [
                            {
                                "system": "http://loinc.org",
                                "code": "59284-0"
                            }
                        ]
                    }
                ],
                "patient": {
                    "reference": "http://localhost:4080/administration/Patient/d5459b35-72c5-45e8-96df-c502c415554e"
                },
                "provision": {
                    "type": "permit"
                },
                "policyRule": {
                    "coding": [
                        {
                            "system": "http://uk-koeln.de/fhir/ValueSet/nngm/nngm-consent-policy",
                            "code": "WP"
                        }
                    ]
                },
                "dateTime": "2020-10-26",
                "id": "6a0fac3e-847b-476a-a8e1-54a3ae3c087d",
                "performer": [
                    {
                        "reference": "http://localhost:4080/administration/Organization/e20f8133-ccfc-4297-b1d5-b3ccb301097a"
                    }
                ]
            },
            "request": {
                "method": "PUT",
                "url": "Consent/6a0fac3e-847b-476a-a8e1-54a3ae3c087d"
            }
        },
        {
            "resource": {
                "resourceType": "Consent",
                "meta": {
                    "profile": [
                        "http://uk-koeln.de/fhir/StructureDefinition/Consent/nNGM"
                    ]
                },
                "status": "active",
                "scope": {
                    "coding": [
                        {
                            "system": "http://terminology.hl7.org/CodeSystem/consentscope",
                            "code": "patient-privacy"
                        }
                    ]
                },
                "category": [
                    {
                        "coding": [
                            {
                                "system": "http://loinc.org",
                                "code": "59284-0"
                            }
                        ]
                    }
                ],
                "patient": {
                    "reference": "http://localhost:4080/administration/Patient/d5459b35-72c5-45e8-96df-c502c415554e"
                },
                "provision": {
                    "type": "permit"
                },
                "policyRule": {
                    "coding": [
                        {
                            "system": "http://uk-koeln.de/fhir/ValueSet/nngm/nngm-consent-policy",
                            "code": "WD"
                        }
                    ]
                },
                "dateTime": "2020-10-26",
                "id": "1ddb93e6-661f-46c4-96b3-d868a2991689",
                "performer": [
                    {
                        "reference": "http://localhost:4080/administration/Organization/e20f8133-ccfc-4297-b1d5-b3ccb301097a"
                    }
                ]
            },
            "request": {
                "method": "PUT",
                "url": "Consent/1ddb93e6-661f-46c4-96b3-d868a2991689"
            }
        },
        {
            "resource": {
                "resourceType": "Consent",
                "meta": {
                    "profile": [
                        "http://uk-koeln.de/fhir/StructureDefinition/Consent/nNGM"
                    ]
                },
                "status": "active",
                "scope": {
                    "coding": [
                        {
                            "system": "http://terminology.hl7.org/CodeSystem/consentscope",
                            "code": "patient-privacy"
                        }
                    ]
                },
                "category": [
                    {
                        "coding": [
                            {
                                "system": "http://loinc.org",
                                "code": "59284-0"
                            }
                        ]
                    }
                ],
                "patient": {
                    "reference": "http://localhost:4080/administration/Patient/d5459b35-72c5-45e8-96df-c502c415554e"
                },
                "provision": {
                    "type": "permit"
                },
                "policyRule": {
                    "coding": [
                        {
                            "system": "http://uk-koeln.de/fhir/ValueSet/nngm/nngm-consent-policy",
                            "code": "WR"
                        }
                    ]
                },
                "dateTime": "2020-10-26",
                "id": "edd20729-3dc9-4baf-a965-ed7dc0cef026",
                "performer": [
                    {
                        "reference": "http://localhost:4080/administration/Organization/e20f8133-ccfc-4297-b1d5-b3ccb301097a"
                    }
                ]
            },
            "request": {
                "method": "PUT",
                "url": "Consent/edd20729-3dc9-4baf-a965-ed7dc0cef026"
            }
        },
        {
            "resource": {
                "resourceType": "Consent",
                "meta": {
                    "profile": [
                        "http://uk-koeln.de/fhir/StructureDefinition/Consent/nNGM"
                    ]
                },
                "status": "active",
                "scope": {
                    "coding": [
                        {
                            "system": "http://terminology.hl7.org/CodeSystem/consentscope",
                            "code": "patient-privacy"
                        }
                    ]
                },
                "category": [
                    {
                        "coding": [
                            {
                                "system": "http://loinc.org",
                                "code": "59284-0"
                            }
                        ]
                    }
                ],
                "patient": {
                    "reference": "http://localhost:4080/administration/Patient/d5459b35-72c5-45e8-96df-c502c415554e"
                },
                "provision": {
                    "type": "permit"
                },
                "policyRule": {
                    "coding": [
                        {
                            "system": "http://uk-koeln.de/fhir/ValueSet/nngm/nngm-consent-policy",
                            "code": "WPK"
                        }
                    ]
                },
                "dateTime": "2020-10-26",
                "id": "ebca0c4f-f98c-4a5d-a010-265b704b34fc",
                "performer": [
                    {
                        "reference": "http://localhost:4080/administration/Organization/e20f8133-ccfc-4297-b1d5-b3ccb301097a"
                    }
                ]
            },
            "request": {
                "method": "PUT",
                "url": "Consent/ebca0c4f-f98c-4a5d-a010-265b704b34fc"
            }
        },
        {
            "resource": {
                "resourceType": "Consent",
                "meta": {
                    "profile": [
                        "http://uk-koeln.de/fhir/StructureDefinition/Consent/nNGM"
                    ]
                },
                "status": "active",
                "scope": {
                    "coding": [
                        {
                            "system": "http://terminology.hl7.org/CodeSystem/consentscope",
                            "code": "patient-privacy"
                        }
                    ]
                },
                "category": [
                    {
                        "coding": [
                            {
                                "system": "http://loinc.org",
                                "code": "59284-0"
                            }
                        ]
                    }
                ],
                "patient": {
                    "reference": "http://localhost:4080/administration/Patient/d5459b35-72c5-45e8-96df-c502c415554e"
                },
                "provision": {
                    "type": "permit"
                },
                "policyRule": {
                    "coding": [
                        {
                            "system": "http://uk-koeln.de/fhir/ValueSet/nngm/nngm-consent-policy",
                            "code": "WK"
                        }
                    ]
                },
                "dateTime": "2020-10-26",
                "id": "29045a59-d7ea-424b-a5d5-ebb80487a935",
                "performer": [
                    {
                        "reference": "http://localhost:4080/administration/Organization/e20f8133-ccfc-4297-b1d5-b3ccb301097a"
                    }
                ]
            },
            "request": {
                "method": "PUT",
                "url": "Consent/29045a59-d7ea-424b-a5d5-ebb80487a935"
            }
        },
        {
            "resource": {
                "resourceType": "Consent",
                "meta": {
                    "profile": [
                        "http://uk-koeln.de/fhir/StructureDefinition/Consent/nNGM"
                    ]
                },
                "status": "active",
                "scope": {
                    "coding": [
                        {
                            "system": "http://terminology.hl7.org/CodeSystem/consentscope",
                            "code": "patient-privacy"
                        }
                    ]
                },
                "category": [
                    {
                        "coding": [
                            {
                                "system": "http://loinc.org",
                                "code": "59284-0"
                            }
                        ]
                    }
                ],
                "patient": {
                    "reference": "http://localhost:4080/administration/Patient/d5459b35-72c5-45e8-96df-c502c415554e"
                },
                "provision": {
                    "type": "permit"
                },
                "policyRule": {
                    "coding": [
                        {
                            "system": "http://uk-koeln.de/fhir/ValueSet/nngm/nngm-consent-policy",
                            "code": "KW"
                        }
                    ]
                },
                "dateTime": "2020-10-26",
                "id": "dcb974a7-4047-46d5-a70c-abb892a4f9ed",
                "performer": [
                    {
                        "reference": "http://localhost:4080/administration/Organization/e20f8133-ccfc-4297-b1d5-b3ccb301097a"
                    }
                ]
            },
            "request": {
                "method": "PUT",
                "url": "Consent/dcb974a7-4047-46d5-a70c-abb892a4f9ed"
            }
        },
        {
            "resource": {
                "resourceType": "Consent",
                "meta": {
                    "profile": [
                        "http://uk-koeln.de/fhir/StructureDefinition/Consent/nNGM"
                    ]
                },
                "status": "active",
                "scope": {
                    "coding": [
                        {
                            "system": "http://terminology.hl7.org/CodeSystem/consentscope",
                            "code": "patient-privacy"
                        }
                    ]
                },
                "category": [
                    {
                        "coding": [
                            {
                                "system": "http://loinc.org",
                                "code": "59284-0"
                            }
                        ]
                    }
                ],
                "patient": {
                    "reference": "http://localhost:4080/administration/Patient/d5459b35-72c5-45e8-96df-c502c415554e"
                },
                "provision": {
                    "type": "permit"
                },
                "policyRule": {
                    "coding": [
                        {
                            "system": "http://uk-koeln.de/fhir/ValueSet/nngm/nngm-consent-policy",
                            "code": "KE"
                        }
                    ]
                },
                "dateTime": "2020-10-26",
                "id": "650b1d55-2cee-4bc0-b711-b4ffd4e6fed8",
                "performer": [
                    {
                        "reference": "http://localhost:4080/administration/Organization/e20f8133-ccfc-4297-b1d5-b3ccb301097a"
                    }
                ]
            },
            "request": {
                "method": "PUT",
                "url": "Consent/650b1d55-2cee-4bc0-b711-b4ffd4e6fed8"
            }
        },
        {
            "resource": {
                "resourceType": "ServiceRequest",
                "meta": {
                    "profile": [
                        "http://uk-koeln.de/fhir/StructureDefinition/ServiceRequest/nNGM/tumorblock"
                    ]
                },
                "subject": {
                    "reference": "http://localhost:4080/administration/Patient/d5459b35-72c5-45e8-96df-c502c415554e"
                },
                "status": "active",
                "intent": "proposal",
                "code": {
                    "coding": [
                        {
                            "system": "http://uk-koeln.de/fhir/ValueSet/nngm/anforderung-code",
                            "code": "Komplette Untersuchung"
                        }
                    ]
                },
                "category": [
                    {
                        "coding": [
                            {
                                "system": "http://uk-koeln.de/fhir/ValueSet/nngm/anforderung-kategorie",
                                "code": "C12801",
                                "display": "Gewebediagnostik"
                            }
                        ]
                    }
                ],
                "reasonReference": [
                    {
                        "reference": "http://localhost:4080/administration/Observation/76d47e6a-7452-4270-9062-2aa6eb25aff1"
                    }
                ],
                "performer": [
                    {
                        "display": "Dr. Mustermann",
                        "reference": "http://localhost:4080/administration/Dr. Mustermann"
                    }
                ],
                "doNotPerform": false,
                "extension": [
                    {
                        "url": "http://uk-koeln.de/fhir/StructureDefinition/Extension/nNGM/grundEntfallBlockAnforderung",
                        "valueCodeableConcept": {
                            "coding": [
                                {
                                    "system": "http://uk-koeln.de/fhir/ValueSet/nngm/grundEntfallBlockAnforderung",
                                    "code": "bereitsUnterwegs"
                                }
                            ]
                        }
                    }
                ],
                "id": "4931ab88-92f8-42ed-b772-181c93614968",
                "requester": {
                    "reference": "http://localhost:4080/administration/Organization/3a73bfd0-d67b-4536-999e-f9c40d4264ad"
                }
            },
            "request": {
                "method": "PUT",
                "url": "ServiceRequest/4931ab88-92f8-42ed-b772-181c93614968"
            }
        },
        {
            "resource": {
                "resourceType": "Observation",
                "meta": {
                    "profile": [
                        "http://uk-koeln.de/fhir/StructureDefinition/Observation/nNGM/histo-vorbefund"
                    ]
                },
                "subject": {
                    "reference": "http://localhost:4080/administration/Patient/d5459b35-72c5-45e8-96df-c502c415554e"
                },
                "status": "final",
                "category": [
                    {
                        "coding": [
                            {
                                "system": "http://hl7.org/fhir/observation-category",
                                "code": "laboratory"
                            }
                        ]
                    }
                ],
                "code": {
                    "coding": [
                        {
                            "system": "http://ncit.nci.nih.gov",
                            "code": "C19165"
                        }
                    ]
                },
                "valueCodeableConcept": {
                    "coding": [
                        {
                            "system": "http://uk-koeln.de/fhir/ValueSet/nngm/histologie-klassifikation",
                            "code": "8250/3",
                            "display": "8250/3"
                        }
                    ]
                },
                "id": "76d47e6a-7452-4270-9062-2aa6eb25aff1"
            },
            "request": {
                "method": "PUT",
                "url": "Observation/76d47e6a-7452-4270-9062-2aa6eb25aff1"
            }
        },
        {
            "resource": {
                "resourceType": "Organization",
                "meta": {
                    "profile": [
                        "http://clinicalsite.org/fhir/StructureDefinition/organizationalunit"
                    ]
                },
                "address": [
                    {
                        "use": "work",
                        "type": "postal"
                    },
                    {
                        "text": "Gemeinschaftspraxis für Pathologie,\r\nErnst-Platz-Str. 2,\r\n80992 München"
                    }
                ],
                "name": "Gemeinschaftspraxis für Pathologie",
                "id": "3a73bfd0-d67b-4536-999e-f9c40d4264ad"
            },
            "request": {
                "method": "PUT",
                "url": "Organization/3a73bfd0-d67b-4536-999e-f9c40d4264ad"
            }
        },
        {
            "resource": {
                "resourceType": "Observation",
                "meta": {
                    "profile": [
                        "http://uk-koeln.de/fhir/StructureDefinition/Observation/nNGM/tumorstadium"
                    ]
                },
                "status": "final",
                "category": [
                    {
                        "coding": [
                            {
                                "system": "http://hl7.org/fhir/observation-category",
                                "code": "survey"
                            }
                        ]
                    }
                ],
                "code": {
                    "coding": [
                        {
                            "system": "http://uk-koeln.de/fhir/ValueSet/cancer-base/tnm-art",
                            "_code": {
                                "extension": [
                                    {
                                        "url": "http://hl7.org/fhir/StructureDefinition/data-absent-reason",
                                        "valueCode": "not-asked"
                                    }
                                ]
                            }
                        }
                    ]
                },
                "subject": {
                    "reference": "http://localhost:4080/administration/Patient/d5459b35-72c5-45e8-96df-c502c415554e"
                },
                "extension": [
                    {
                        "url": "http://uk-koeln.de/fhir/StructureDefinition/Extension/nngm/tnm-erstdiagnose",
                        "valueBoolean": true
                    },
                    {
                        "url": "http://uk-koeln.de/fhir/StructureDefinition/Extension/nngm/tnm-kurativ-operabel",
                        "valueBoolean": true
                    }
                ],
                "valueCodeableConcept": {
                    "coding": [
                        {
                            "version": "8. Auflage",
                            "system": "http://uk-koeln.de/fhir/ValueSet/nngm/uicc-stage",
                            "code": "IIIA3"
                        }
                    ]
                },
                "effectiveDateTime": "2020-12-04",
                "component": [
                    {
                        "code": {
                            "coding": [
                                {
                                    "system": "http://loinc.org",
                                    "code": "21983-2"
                                }
                            ]
                        },
                        "valueBoolean": true
                    },
                    {
                        "code": {
                            "coding": [
                                {
                                    "system": "http://loinc.org",
                                    "code": "21905-5"
                                }
                            ]
                        },
                        "valueCodeableConcept": {
                            "text": "T slice",
                            "coding": [
                                {
                                    "system": "http://uk-koeln.de/fhir/ValueSet/nngm/tnm-t-nngm",
                                    "code": "Ta"
                                }
                            ]
                        },
                        "extension": [
                            {
                                "url": "http://uk-koeln.de/fhir/StructureDefinition/Extension/nngm/tnm-praefix-cpu",
                                "valueCodeableConcept": {
                                    "text": "T-praefix slice",
                                    "coding": [
                                        {
                                            "system": "http://uk-koeln.de/fhir/ValueSet/nngm/tnm-praefix-cpu",
                                            "code": "p - histopathologisch gesichert"
                                        }
                                    ]
                                }
                            },
                            {
                                "url": "http://uk-koeln.de/fhir/StructureDefinition/Extension/nngm/tnm-suffix-miscy",
                                "valueCodeableConcept": {
                                    "text": "T-suffix slice",
                                    "coding": [
                                        {
                                            "system": "http://uk-koeln.de/fhir/ValueSet/nngm/tnm-suffix-miscy",
                                            "code": "cy - zytologisch"
                                        }
                                    ]
                                }
                            }
                        ]
                    },
                    {
                        "code": {
                            "coding": [
                                {
                                    "system": "http://loinc.org",
                                    "code": "21906-3"
                                }
                            ]
                        },
                        "valueCodeableConcept": {
                            "text": "N slice",
                            "coding": [
                                {
                                    "system": "http://uk-koeln.de/fhir/ValueSet/nngm/tnm-n-nngm",
                                    "code": "N1b"
                                }
                            ]
                        },
                        "extension": [
                            {
                                "url": "http://uk-koeln.de/fhir/StructureDefinition/Extension/nngm/tnm-praefix-cpu",
                                "valueCodeableConcept": {
                                    "coding": [
                                        {
                                            "system": "http://uk-koeln.de/fhir/ValueSet/nngm/tnm-praefix-cpu",
                                            "code": "c - klinisch gesichert"
                                        }
                                    ],
                                    "text": "N-praefix slice"
                                }
                            }
                        ]
                    },
                    {
                        "code": {
                            "coding": [
                                {
                                    "system": "http://loinc.org",
                                    "code": "21907-1"
                                }
                            ]
                        },
                        "valueCodeableConcept": {
                            "text": "M slice",
                            "coding": [
                                {
                                    "system": "http://uk-koeln.de/fhir/ValueSet/nngm/tnm-m-nngm",
                                    "code": "M1b"
                                }
                            ]
                        },
                        "extension": [
                            {
                                "url": "http://uk-koeln.de/fhir/StructureDefinition/Extension/nngm/tnm-praefix-cpu",
                                "valueCodeableConcept": {
                                    "coding": [
                                        {
                                            "system": "http://uk-koeln.de/fhir/ValueSet/nngm/tnm-praefix-cpu",
                                            "code": "p - histopathologisch gesichert"
                                        }
                                    ],
                                    "text": "M-praefix slice"
                                }
                            }
                        ]
                    }
                ],
                "id": "dd76cf93-fffa-4787-8e00-4d7d6dadc48e"
            },
            "request": {
                "method": "PUT",
                "url": "Observation/dd76cf93-fffa-4787-8e00-4d7d6dadc48e"
            }
        },
        {
            "resource": {
                "resourceType": "Observation",
                "meta": {
                    "profile": [
                        "http://uk-koeln.de/fhir/StructureDefinition/Observation/nNGM/progress-relapse"
                    ]
                },
                "status": "final",
                "category": [
                    {
                        "coding": [
                            {
                                "system": "http://hl7.org/fhir/ValueSet/observation-category",
                                "code": "survey"
                            }
                        ]
                    }
                ],
                "code": {
                    "coding": [
                        {
                            "system": "http://ncit.nci.nih.gov",
                            "code": "C25630"
                        }
                    ]
                },
                "subject": {
                    "reference": "http://localhost:4080/administration/Patient/d5459b35-72c5-45e8-96df-c502c415554e"
                },
                "valueBoolean": true,
                "effectiveDateTime": "2020-11-30",
                "id": "4a230537-8e3b-46c1-8c36-cb2a9f0fa591"
            },
            "request": {
                "method": "PUT",
                "url": "Observation/4a230537-8e3b-46c1-8c36-cb2a9f0fa591"
            }
        },
        {
            "resource": {
                "resourceType": "Observation",
                "meta": {
                    "profile": [
                        "http://uk-koeln.de/fhir/StructureDefinition/Observation/nNGM/tki-resistenz-egfr"
                    ]
                },
                "status": "final",
                "category": [
                    {
                        "coding": [
                            {
                                "system": "http://ncit.nci.nih.gov",
                                "code": "C1967"
                            }
                        ]
                    }
                ],
                "code": {
                    "coding": [
                        {
                            "system": "http://uk-koeln.de/fhir/ValueSet/nngm/tki-resistenz",
                            "code": "C134501"
                        }
                    ]
                },
                "subject": {
                    "reference": "http://localhost:4080/administration/Patient/d5459b35-72c5-45e8-96df-c502c415554e"
                },
                "component": [
                    {
                        "valueString": "12",
                        "code": {
                            "coding": [
                                {
                                    "system": "http://ncit.nci.nih.gov",
                                    "code": "C13231"
                                }
                            ]
                        }
                    },
                    {
                        "valueString": "5",
                        "code": {
                            "coding": [
                                {
                                    "system": "http://loinc.org",
                                    "code": "48004-6"
                                }
                            ]
                        }
                    },
                    {
                        "valueString": "9",
                        "code": {
                            "coding": [
                                {
                                    "system": "http://loinc.org",
                                    "code": "48005-3"
                                }
                            ]
                        }
                    },
                    {
                        "code": {
                            "coding": [
                                {
                                    "system": "http://ncit.nci.nih.gov",
                                    "code": "C62721"
                                }
                            ]
                        },
                        "valueCodeableConcept": {
                            "text": "Therapie 1"
                        },
                        "extension": [
                            {
                                "url": "http://uk-koeln.de/fhir/StructureDefinition/Extension/nNGM/observation-component-order",
                                "valueInteger": 1
                            }
                        ]
                    },
                    {
                        "code": {
                            "coding": [
                                {
                                    "system": "http://ncit.nci.nih.gov",
                                    "code": "C62721"
                                }
                            ]
                        },
                        "valueCodeableConcept": {
                            "text": "Therapie 2"
                        },
                        "extension": [
                            {
                                "url": "http://uk-koeln.de/fhir/StructureDefinition/Extension/nNGM/observation-component-order",
                                "valueInteger": 2
                            }
                        ]
                    },
                    {
                        "code": {
                            "coding": [
                                {
                                    "system": "http://ncit.nci.nih.gov",
                                    "code": "C62721"
                                }
                            ]
                        },
                        "valueCodeableConcept": {
                            "text": "Therapie 3"
                        },
                        "extension": [
                            {
                                "url": "http://uk-koeln.de/fhir/StructureDefinition/Extension/nNGM/observation-component-order",
                                "valueInteger": 3
                            }
                        ]
                    },
                    {
                        "code": {
                            "coding": [
                                {
                                    "system": "http://ncit.nci.nih.gov",
                                    "code": "C62721"
                                }
                            ]
                        },
                        "valueCodeableConcept": {
                            "text": "Therapie 4"
                        },
                        "extension": [
                            {
                                "url": "http://uk-koeln.de/fhir/StructureDefinition/Extension/nNGM/observation-component-order",
                                "valueInteger": 4
                            }
                        ]
                    }
                ],
                "effectiveDateTime": "2020-11-30",
                "id": "f38ad6a4-bc94-4479-bdad-c453e9239466"
            },
            "request": {
                "method": "PUT",
                "url": "Observation/f38ad6a4-bc94-4479-bdad-c453e9239466"
            }
        },
        {
            "resource": {
                "resourceType": "Observation",
                "meta": {
                    "profile": [
                        "http://uk-koeln.de/fhir/StructureDefinition/Observation/nNGM/tki-resistenz-alk"
                    ]
                },
                "status": "final",
                "category": [
                    {
                        "coding": [
                            {
                                "system": "http://ncit.nci.nih.gov",
                                "code": "C1967"
                            }
                        ]
                    }
                ],
                "code": {
                    "coding": [
                        {
                            "system": "http://uk-koeln.de/fhir/ValueSet/nngm/tki-resistenz",
                            "code": "C142114"
                        }
                    ]
                },
                "subject": {
                    "reference": "http://localhost:4080/administration/Patient/d5459b35-72c5-45e8-96df-c502c415554e"
                },
                "component": [
                    {
                        "code": {
                            "coding": [
                                {
                                    "system": "http://ncit.nci.nih.gov",
                                    "code": "C62721"
                                }
                            ]
                        },
                        "valueCodeableConcept": {
                            "text": "Therapie 1_1"
                        },
                        "extension": [
                            {
                                "url": "http://uk-koeln.de/fhir/StructureDefinition/Extension/nNGM/observation-component-order",
                                "valueInteger": 1
                            }
                        ]
                    },
                    {
                        "code": {
                            "coding": [
                                {
                                    "system": "http://ncit.nci.nih.gov",
                                    "code": "C62721"
                                }
                            ]
                        },
                        "valueCodeableConcept": {
                            "text": "Therapie 1_2"
                        },
                        "extension": [
                            {
                                "url": "http://uk-koeln.de/fhir/StructureDefinition/Extension/nNGM/observation-component-order",
                                "valueInteger": 2
                            }
                        ]
                    },
                    {
                        "code": {
                            "coding": [
                                {
                                    "system": "http://ncit.nci.nih.gov",
                                    "code": "C62721"
                                }
                            ]
                        },
                        "valueCodeableConcept": {
                            "text": "Therapie 1_3"
                        },
                        "extension": [
                            {
                                "url": "http://uk-koeln.de/fhir/StructureDefinition/Extension/nNGM/observation-component-order",
                                "valueInteger": 3
                            }
                        ]
                    },
                    {
                        "code": {
                            "coding": [
                                {
                                    "system": "http://ncit.nci.nih.gov",
                                    "code": "C62721"
                                }
                            ]
                        },
                        "valueCodeableConcept": {
                            "text": "Therapie 1_4"
                        },
                        "extension": [
                            {
                                "url": "http://uk-koeln.de/fhir/StructureDefinition/Extension/nNGM/observation-component-order",
                                "valueInteger": 4
                            }
                        ]
                    },
                    {
                        "code": {
                            "coding": [
                                {
                                    "system": "http://ncit.nci.nih.gov",
                                    "code": "C28510"
                                }
                            ]
                        },
                        "valueString": "ALK-Fusionspartner"
                    }
                ],
                "effectiveDateTime": "2020-11-30",
                "id": "662e8acc-db17-49d1-afa8-18cfe1f3c522"
            },
            "request": {
                "method": "PUT",
                "url": "Observation/662e8acc-db17-49d1-afa8-18cfe1f3c522"
            }
        },
        {
            "resource": {
                "resourceType": "Observation",
                "meta": {
                    "profile": [
                        "http://uk-koeln.de/fhir/StructureDefinition/Observation/ihc"
                    ]
                },
                "status": "final",
                "category": [
                    {
                        "coding": [
                            {
                                "system": "http://terminology.hl7.org/CodeSystem/observation-category",
                                "code": "laboratory"
                            }
                        ]
                    }
                ],
                "method": {
                    "coding": [
                        {
                            "system": "http://ncit.nci.nih.gov",
                            "code": "C23020"
                        }
                    ]
                },
                "code": {
                    "coding": [
                        {
                            "system": "http://uk-koeln.de/fhir/ValueSet/nNGM/molpatho-obs-codes",
                            "code": "MIB1"
                        }
                    ]
                },
                "subject": {
                    "reference": "http://localhost:4080/administration/Patient/d5459b35-72c5-45e8-96df-c502c415554e"
                },
                "effectiveDateTime": "2020-12-18",
                "component": [
                    {
                        "valueString": "Expression",
                        "code": {
                            "coding": [
                                {
                                    "system": "http://ncit.nci.nih.gov",
                                    "code": "C16977"
                                }
                            ]
                        }
                    }
                ],
                "valueCodeableConcept": {
                    "coding": [
                        {
                            "system": "http://uk-koeln.de/fhir/ValueSet/nNGM/ergebnis-posNegIndNoCall",
                            "code": "LA6576-8",
                            "display": "Positive"
                        }
                    ]
                },
                "id": "ea2ab698-192d-4940-a990-16bc2a898fba"
            },
            "request": {
                "method": "PUT",
                "url": "Observation/ea2ab698-192d-4940-a990-16bc2a898fba"
            }
        },
        {
            "resource": {
                "resourceType": "Observation",
                "meta": {
                    "profile": [
                        "http://uk-koeln.de/fhir/StructureDefinition/Observation/ihc"
                    ]
                },
                "status": "final",
                "category": [
                    {
                        "coding": [
                            {
                                "system": "http://terminology.hl7.org/CodeSystem/observation-category",
                                "code": "laboratory"
                            }
                        ]
                    }
                ],
                "method": {
                    "coding": [
                        {
                            "system": "http://ncit.nci.nih.gov",
                            "code": "C23020"
                        }
                    ]
                },
                "code": {
                    "coding": [
                        {
                            "system": "http://uk-koeln.de/fhir/ValueSet/nNGM/molpatho-obs-codes",
                            "code": "ALK"
                        }
                    ]
                },
                "subject": {
                    "reference": "http://localhost:4080/administration/Patient/d5459b35-72c5-45e8-96df-c502c415554e"
                },
                "effectiveDateTime": "2020-12-18",
                "component": [
                    {
                        "valueString": "Fusion",
                        "code": {
                            "coding": [
                                {
                                    "system": "http://ncit.nci.nih.gov",
                                    "code": "C16977"
                                }
                            ]
                        }
                    }
                ],
                "valueCodeableConcept": {
                    "coding": [
                        {
                            "system": "http://uk-koeln.de/fhir/ValueSet/nNGM/ergebnis-posNegIndNoCall",
                            "code": "LA11884-6",
                            "display": "Indeterminate"
                        }
                    ]
                },
                "id": "f6919d06-29ed-4724-98e8-c9072c097912"
            },
            "request": {
                "method": "PUT",
                "url": "Observation/f6919d06-29ed-4724-98e8-c9072c097912"
            }
        },
        {
            "resource": {
                "resourceType": "Observation",
                "meta": {
                    "profile": [
                        "http://uk-koeln.de/fhir/StructureDefinition/Observation/ish"
                    ]
                },
                "status": "final",
                "category": [
                    {
                        "coding": [
                            {
                                "system": "http://terminology.hl7.org/CodeSystem/observation-category",
                                "code": "laboratory"
                            }
                        ]
                    }
                ],
                "method": {
                    "coding": [
                        {
                            "system": "http://ncit.nci.nih.gov",
                            "code": "C23022"
                        }
                    ]
                },
                "code": {
                    "coding": [
                        {
                            "system": "http://uk-koeln.de/fhir/ValueSet/nNGM/molpatho-obs-codes",
                            "code": "RET"
                        }
                    ]
                },
                "effectiveDateTime": "2020-12-18",
                "component": [
                    {
                        "valueString": "Fusion",
                        "code": {
                            "coding": [
                                {
                                    "system": "http://ncit.nci.nih.gov",
                                    "code": "C16977"
                                }
                            ]
                        }
                    },
                    {
                        "valueQuantity": {
                            "value": 12,
                            "system": "http://unitsofmeasure.org",
                            "unit": "percentage",
                            "code": "%"
                        },
                        "code": {
                            "coding": [
                                {
                                    "system": "http://ncit.nci.nih.gov",
                                    "code": "C70460"
                                }
                            ]
                        }
                    }
                ],
                "subject": {
                    "reference": "http://localhost:4080/administration/Patient/d5459b35-72c5-45e8-96df-c502c415554e"
                },
                "valueCodeableConcept": {
                    "coding": [
                        {
                            "system": "http://uk-koeln.de/fhir/ValueSet/nNGM/ergebnis-posNegIndNoCall",
                            "code": "LA6576-8",
                            "display": "Positive"
                        }
                    ]
                },
                "id": "e56aa97b-a959-4c18-aff2-4c92b70de3bf"
            },
            "request": {
                "method": "PUT",
                "url": "Observation/e56aa97b-a959-4c18-aff2-4c92b70de3bf"
            }
        },
        {
            "resource": {
                "resourceType": "Observation",
                "meta": {
                    "profile": [
                        "http://uk-koeln.de/fhir/StructureDefinition/Observation/fish"
                    ]
                },
                "status": "final",
                "category": [
                    {
                        "coding": [
                            {
                                "system": "http://terminology.hl7.org/CodeSystem/observation-category",
                                "code": "laboratory"
                            }
                        ]
                    }
                ],
                "method": {
                    "coding": [
                        {
                            "system": "http://ncit.nci.nih.gov",
                            "code": "C17563"
                        }
                    ]
                },
                "code": {
                    "coding": [
                        {
                            "system": "http://uk-koeln.de/fhir/ValueSet/nNGM/molpatho-obs-codes",
                            "code": "RET"
                        }
                    ]
                },
                "subject": {
                    "reference": "http://localhost:4080/administration/Patient/d5459b35-72c5-45e8-96df-c502c415554e"
                },
                "effectiveDateTime": "2020-12-18",
                "component": [
                    {
                        "valueString": "Fusion",
                        "code": {
                            "coding": [
                                {
                                    "system": "http://ncit.nci.nih.gov",
                                    "code": "C16977"
                                }
                            ]
                        }
                    },
                    {
                        "valueQuantity": {
                            "value": 13,
                            "system": "http://unitsofmeasure.org",
                            "unit": "percentage",
                            "code": "%"
                        },
                        "code": {
                            "coding": [
                                {
                                    "system": "http://ncit.nci.nih.gov",
                                    "code": "C70460"
                                }
                            ]
                        }
                    },
                    {
                        "valueQuantity": {
                            "value": 14,
                            "system": "http://unitsofmeasure.org",
                            "unit": "percentage",
                            "code": "%"
                        },
                        "code": {
                            "coding": [
                                {
                                    "system": "http://ncit.nci.nih.gov",
                                    "code": "C36331"
                                }
                            ]
                        }
                    }
                ],
                "valueCodeableConcept": {
                    "coding": [
                        {
                            "system": "http://uk-koeln.de/fhir/ValueSet/nNGM/ergebnis-posNegIndNoCall",
                            "code": "LA6577-6",
                            "display": "Negative"
                        }
                    ]
                },
                "id": "4d37c2f3-4146-48ad-9a30-3804ec5a8286"
            },
            "request": {
                "method": "PUT",
                "url": "Observation/4d37c2f3-4146-48ad-9a30-3804ec5a8286"
            }
        },
        {
            "resource": {
                "resourceType": "Observation",
                "meta": {
                    "profile": [
                        "http://uk-koeln.de/fhir/StructureDefinition/Observation/fasttrack"
                    ]
                },
                "status": "final",
                "category": [
                    {
                        "coding": [
                            {
                                "system": "http://terminology.hl7.org/CodeSystem/observation-category",
                                "code": "laboratory"
                            }
                        ]
                    }
                ],
                "method": {
                    "coding": [
                        {
                            "system": "http://ncit.nci.nih.gov",
                            "code": "C101293"
                        }
                    ]
                },
                "code": {
                    "coding": [
                        {
                            "system": "http://uk-koeln.de/fhir/ValueSet/fasttrack-obs-codes",
                            "code": "C128662",
                            "display": "EGFR Exon 19 Mutation"
                        }
                    ]
                },
                "effectiveDateTime": "2020-12-18",
                "component": [
                    {
                        "code": {
                            "coding": [
                                {
                                    "system": "http://ncit.nci.nih.gov",
                                    "code": "C60819"
                                }
                            ]
                        },
                        "valueCodeableConcept": {
                            "coding": [
                                {
                                    "system": "http://uk-koeln.de/fhir/CodeSystem/fasttrack-assays",
                                    "code": "Sanger-Sequenzierung, CEQ-8000 Analyzer"
                                }
                            ]
                        }
                    },
                    {
                        "code": {
                            "coding": [
                                {
                                    "system": "http://ncit.nci.nih.gov",
                                    "code": "C25392"
                                }
                            ]
                        },
                        "valueCodeableConcept": {
                            "coding": [
                                {
                                    "system": "http://uk-koeln.de/fhir/ValueSet/hersteller-molpatho",
                                    "code": "Roche"
                                }
                            ]
                        }
                    },
                    {
                        "code": {
                            "coding": [
                                {
                                    "system": "http://loinc.org",
                                    "code": "48004-6"
                                }
                            ]
                        },
                        "valueString": "ChangeDNA 1"
                    },
                    {
                        "code": {
                            "coding": [
                                {
                                    "system": "http://loinc.org",
                                    "code": "48005-3"
                                }
                            ]
                        },
                        "valueString": "ChangeProtein 1"
                    }
                ],
                "subject": {
                    "reference": "http://localhost:4080/administration/Patient/d5459b35-72c5-45e8-96df-c502c415554e"
                },
                "valueCodeableConcept": {
                    "coding": [
                        {
                            "system": "http://uk-koeln.de/fhir/ValueSet/nNGM/ergebnis-fasttrack",
                            "code": "keine aktivierende Mutation"
                        }
                    ]
                },
                "id": "08941beb-5083-4308-b51b-c12e4ee3bae1"
            },
            "request": {
                "method": "PUT",
                "url": "Observation/08941beb-5083-4308-b51b-c12e4ee3bae1"
            }
        },
        {
            "resource": {
                "resourceType": "Observation",
                "meta": {
                    "profile": [
                        "http://uk-koeln.de/fhir/StructureDefinition/Observation/fasttrack"
                    ]
                },
                "status": "final",
                "category": [
                    {
                        "coding": [
                            {
                                "system": "http://terminology.hl7.org/CodeSystem/observation-category",
                                "code": "laboratory"
                            }
                        ]
                    }
                ],
                "method": {
                    "coding": [
                        {
                            "system": "http://ncit.nci.nih.gov",
                            "code": "C101293"
                        }
                    ]
                },
                "code": {
                    "coding": [
                        {
                            "system": "http://uk-koeln.de/fhir/ValueSet/fasttrack-obs-codes",
                            "code": "C128663",
                            "display": "EGFR Exon 20 Mutation"
                        }
                    ]
                },
                "effectiveDateTime": "2020-12-18",
                "component": [
                    {
                        "code": {
                            "coding": [
                                {
                                    "system": "http://ncit.nci.nih.gov",
                                    "code": "C60819"
                                }
                            ]
                        },
                        "valueCodeableConcept": {
                            "coding": [
                                {
                                    "system": "http://uk-koeln.de/fhir/CodeSystem/fasttrack-assays",
                                    "code": "Sanger-Sequenzierung, CEQ-8000 Analyzer"
                                }
                            ]
                        }
                    },
                    {
                        "code": {
                            "coding": [
                                {
                                    "system": "http://ncit.nci.nih.gov",
                                    "code": "C25392"
                                }
                            ]
                        },
                        "valueCodeableConcept": {
                            "coding": [
                                {
                                    "system": "http://uk-koeln.de/fhir/ValueSet/hersteller-molpatho",
                                    "code": "Roche"
                                }
                            ]
                        }
                    },
                    {
                        "code": {
                            "coding": [
                                {
                                    "system": "http://loinc.org",
                                    "code": "48004-6"
                                }
                            ]
                        },
                        "valueString": "ChangeDNA 2"
                    },
                    {
                        "code": {
                            "coding": [
                                {
                                    "system": "http://loinc.org",
                                    "code": "48005-3"
                                }
                            ]
                        },
                        "valueString": "ChangeProtein 2"
                    }
                ],
                "subject": {
                    "reference": "http://localhost:4080/administration/Patient/d5459b35-72c5-45e8-96df-c502c415554e"
                },
                "valueCodeableConcept": {
                    "coding": [
                        {
                            "system": "http://uk-koeln.de/fhir/ValueSet/nNGM/ergebnis-fasttrack",
                            "code": "nicht auswertbar"
                        }
                    ]
                },
                "id": "a748d8b9-9f30-4541-8d34-ae8be881725b"
            },
            "request": {
                "method": "PUT",
                "url": "Observation/a748d8b9-9f30-4541-8d34-ae8be881725b"
            }
        },
        {
            "resource": {
                "resourceType": "Observation",
                "meta": {
                    "profile": [
                        "http://uk-koeln.de/fhir/StructureDefinition/Observation/fasttrack"
                    ]
                },
                "status": "final",
                "category": [
                    {
                        "coding": [
                            {
                                "system": "http://terminology.hl7.org/CodeSystem/observation-category",
                                "code": "laboratory"
                            }
                        ]
                    }
                ],
                "method": {
                    "coding": [
                        {
                            "system": "http://ncit.nci.nih.gov",
                            "code": "C101293"
                        }
                    ]
                },
                "code": {
                    "coding": [
                        {
                            "system": "http://uk-koeln.de/fhir/ValueSet/fasttrack-obs-codes",
                            "code": "C128666",
                            "display": "EGFR Exon 21 Mutation"
                        }
                    ]
                },
                "effectiveDateTime": "2020-12-18",
                "component": [
                    {
                        "code": {
                            "coding": [
                                {
                                    "system": "http://ncit.nci.nih.gov",
                                    "code": "C60819"
                                }
                            ]
                        },
                        "valueCodeableConcept": {
                            "coding": [
                                {
                                    "system": "http://uk-koeln.de/fhir/CodeSystem/fasttrack-assays",
                                    "code": "Sanger-Sequenzierung, CEQ-8000 Analyzer"
                                }
                            ]
                        }
                    },
                    {
                        "code": {
                            "coding": [
                                {
                                    "system": "http://ncit.nci.nih.gov",
                                    "code": "C25392"
                                }
                            ]
                        },
                        "valueCodeableConcept": {
                            "coding": [
                                {
                                    "system": "http://uk-koeln.de/fhir/ValueSet/hersteller-molpatho",
                                    "code": "Roche"
                                }
                            ]
                        }
                    },
                    {
                        "code": {
                            "coding": [
                                {
                                    "system": "http://loinc.org",
                                    "code": "48004-6"
                                }
                            ]
                        },
                        "valueString": "ChangeDNA 3"
                    },
                    {
                        "code": {
                            "coding": [
                                {
                                    "system": "http://loinc.org",
                                    "code": "48005-3"
                                }
                            ]
                        },
                        "valueString": "ChangeProtein 3"
                    }
                ],
                "subject": {
                    "reference": "http://localhost:4080/administration/Patient/d5459b35-72c5-45e8-96df-c502c415554e"
                },
                "valueCodeableConcept": {
                    "coding": [
                        {
                            "system": "http://uk-koeln.de/fhir/ValueSet/nNGM/ergebnis-fasttrack",
                            "code": "keine aktivierende Mutation"
                        }
                    ]
                },
                "id": "071f5138-9d4f-4231-aa91-8e67fcf7dfee"
            },
            "request": {
                "method": "PUT",
                "url": "Observation/071f5138-9d4f-4231-aa91-8e67fcf7dfee"
            }
        },
        {
            "resource": {
                "resourceType": "Device",
                "id": "9302a5f6-0ac6-4295-a9fc-83ce53ff1a39",
                "meta": {
                    "profile": [
                        "http://uk-koeln.de/fhir/StructureDefinition/Device"
                    ]
                },
                "version": [
                    {
                        "value": "Lun3"
                    }
                ]
            },
            "request": {
                "method": "PUT",
                "url": "Device/9302a5f6-0ac6-4295-a9fc-83ce53ff1a39"
            }
        },
        {
            "resource": {
                "resourceType": "DiagnosticReport",
                "meta": {
                    "profile": [
                        "http://uk-koeln.de/fhir/StructureDefinition/DiagnosticReport/nNGM/befund"
                    ]
                },
                "_status": {
                    "extension": [
                        {
                            "url": "http://hl7.org/fhir/StructureDefinition/data-absent-reason",
                            "valueCode": "not-asked"
                        }
                    ]
                },
                "code": {
                    "extension": [
                        {
                            "url": "http://hl7.org/fhir/StructureDefinition/data-absent-reason",
                            "valueCode": "not-asked"
                        }
                    ]
                },
                "subject": {
                    "reference": "http://localhost:4080/administration/Patient/d5459b35-72c5-45e8-96df-c502c415554e"
                },
                "issued": "2020-12-18",
                "identifier": [
                    {
                        "system": "http://uk-koeln.de/NamingSystem/nNGM/befundnummer",
                        "value": "1212"
                    }
                ],
                "id": "f9f2210e-b125-4ac9-a617-006d14c78c38",
                "result": [
                    {
                        "reference": "http://localhost:4080/administration/Observation/2afda91b-f36a-4720-b82b-fee266e2f5e6"
                    },
                    {
                        "reference": "http://localhost:4080/administration/Observation/19e46c4a-01e6-4331-948e-42e3d89f4b2b"
                    },
                    {
                        "reference": "http://localhost:4080/administration/Observation/ea2ab698-192d-4940-a990-16bc2a898fba"
                    },
                    {
                        "reference": "http://localhost:4080/administration/Observation/f6919d06-29ed-4724-98e8-c9072c097912"
                    },
                    {
                        "reference": "http://localhost:4080/administration/Observation/e56aa97b-a959-4c18-aff2-4c92b70de3bf"
                    },
                    {
                        "reference": "http://localhost:4080/administration/Observation/4d37c2f3-4146-48ad-9a30-3804ec5a8286"
                    },
                    {
                        "reference": "http://localhost:4080/administration/Observation/87696c76-a97c-4aa6-847e-28e4109dd1fe"
                    },
                    {
                        "reference": "http://localhost:4080/administration/Observation/378d04cf-f918-4138-9fd0-63c13e69e823"
                    },
                    {
                        "reference": "http://localhost:4080/administration/Observation/7748c8f0-9b16-43ab-9001-10b3b5b9e3ed"
                    },
                    {
                        "reference": "http://localhost:4080/administration/Observation/08941beb-5083-4308-b51b-c12e4ee3bae1"
                    },
                    {
                        "reference": "http://localhost:4080/administration/Observation/a748d8b9-9f30-4541-8d34-ae8be881725b"
                    },
                    {
                        "reference": "http://localhost:4080/administration/Observation/071f5138-9d4f-4231-aa91-8e67fcf7dfee"
                    }
                ]
            },
            "request": {
                "method": "PUT",
                "url": "DiagnosticReport/f9f2210e-b125-4ac9-a617-006d14c78c38"
            }
        },
        {
            "resource": {
                "resourceType": "Observation",
                "meta": {
                    "profile": [
                        "http://uk-koeln.de/fhir/StructureDefinition/Observation/ngs-fusion-expression"
                    ]
                },
                "status": "final",
                "category": [
                    {
                        "coding": [
                            {
                                "system": "http://terminology.hl7.org/CodeSystem/observation-category",
                                "code": "laboratory"
                            }
                        ]
                    }
                ],
                "method": {
                    "coding": [
                        {
                            "system": "http://ncit.nci.nih.gov",
                            "code": "C101293"
                        }
                    ]
                },
                "code": {
                    "coding": [
                        {
                            "system": "http://uk-koeln.de/fhir/ValueSet/nNGM/molpatho-obs-codes",
                            "code": "Sonstiges"
                        }
                    ]
                },
                "subject": {
                    "reference": "http://localhost:4080/administration/Patient/d5459b35-72c5-45e8-96df-c502c415554e"
                },
                "effectiveDateTime": "2020-12-18",
                "valueCodeableConcept": {
                    "coding": [
                        {
                            "system": "http://uk-koeln.de/fhir/ValueSet/nNGM/ergebnis-posNegIndNoCall",
                            "code": "LA6577-6",
                            "display": "Negative"
                        }
                    ]
                },
                "component": [
                    {
                        "valueCodeableConcept": {
                            "coding": [
                                {
                                    "system": "http://uk-koeln.de/fhir/ValueSet/hgnc-codes",
                                    "code": "erster Partner 1"
                                }
                            ]
                        },
                        "code": {
                            "coding": [
                                {
                                    "system": "http://loinc.org",
                                    "code": "48018-6"
                                }
                            ]
                        }
                    },
                    {
                        "valueString": "zweiter Partner 1",
                        "code": {
                            "coding": [
                                {
                                    "system": "http://ncit.nci.nih.gov",
                                    "code": "C28510"
                                }
                            ]
                        }
                    },
                    {
                        "valueInteger": 4,
                        "code": {
                            "coding": [
                                {
                                    "system": "http://loinc.org",
                                    "code": "82121-5"
                                }
                            ]
                        }
                    },
                    {
                        "valueInteger": 5,
                        "code": {
                            "coding": [
                                {
                                    "system": "http://uk-koeln.de/fhir/CodeSystem/tbd-codes",
                                    "code": "erster-fusionspartner-exon"
                                }
                            ]
                        }
                    },
                    {
                        "valueInteger": 6,
                        "code": {
                            "coding": [
                                {
                                    "system": "http://uk-koeln.de/fhir/CodeSystem/tbd-codes",
                                    "code": "zweiter-fusionspartner-exon"
                                }
                            ]
                        }
                    }
                ],
                "id": "87696c76-a97c-4aa6-847e-28e4109dd1fe"
            },
            "request": {
                "method": "PUT",
                "url": "Observation/87696c76-a97c-4aa6-847e-28e4109dd1fe"
            }
        },
        {
            "resource": {
                "resourceType": "Observation",
                "meta": {
                    "profile": [
                        "http://uk-koeln.de/fhir/StructureDefinition/Observation/ngs-fusion-expression"
                    ]
                },
                "status": "final",
                "category": [
                    {
                        "coding": [
                            {
                                "system": "http://terminology.hl7.org/CodeSystem/observation-category",
                                "code": "laboratory"
                            }
                        ]
                    }
                ],
                "method": {
                    "coding": [
                        {
                            "system": "http://ncit.nci.nih.gov",
                            "code": "C101293"
                        }
                    ]
                },
                "code": {
                    "coding": [
                        {
                            "system": "http://uk-koeln.de/fhir/ValueSet/nNGM/molpatho-obs-codes",
                            "code": "Sonstiges"
                        }
                    ]
                },
                "subject": {
                    "reference": "http://localhost:4080/administration/Patient/d5459b35-72c5-45e8-96df-c502c415554e"
                },
                "effectiveDateTime": "2020-12-18",
                "valueCodeableConcept": {
                    "coding": [
                        {
                            "system": "http://uk-koeln.de/fhir/ValueSet/nNGM/ergebnis-posNegIndNoCall",
                            "code": "LA6577-6",
                            "display": "Negative"
                        }
                    ]
                },
                "component": [
                    {
                        "valueCodeableConcept": {
                            "coding": [
                                {
                                    "system": "http://uk-koeln.de/fhir/ValueSet/hgnc-codes",
                                    "code": "erster Partner 2"
                                }
                            ]
                        },
                        "code": {
                            "coding": [
                                {
                                    "system": "http://loinc.org",
                                    "code": "48018-6"
                                }
                            ]
                        }
                    },
                    {
                        "valueString": "zweiter Partner 2",
                        "code": {
                            "coding": [
                                {
                                    "system": "http://ncit.nci.nih.gov",
                                    "code": "C28510"
                                }
                            ]
                        }
                    },
                    {
                        "valueInteger": 7,
                        "code": {
                            "coding": [
                                {
                                    "system": "http://loinc.org",
                                    "code": "82121-5"
                                }
                            ]
                        }
                    },
                    {
                        "valueInteger": 8,
                        "code": {
                            "coding": [
                                {
                                    "system": "http://uk-koeln.de/fhir/CodeSystem/tbd-codes",
                                    "code": "erster-fusionspartner-exon"
                                }
                            ]
                        }
                    },
                    {
                        "valueInteger": 9,
                        "code": {
                            "coding": [
                                {
                                    "system": "http://uk-koeln.de/fhir/CodeSystem/tbd-codes",
                                    "code": "zweiter-fusionspartner-exon"
                                }
                            ]
                        }
                    }
                ],
                "id": "378d04cf-f918-4138-9fd0-63c13e69e823"
            },
            "request": {
                "method": "PUT",
                "url": "Observation/378d04cf-f918-4138-9fd0-63c13e69e823"
            }
        },
        {
            "resource": {
                "resourceType": "Observation",
                "meta": {
                    "profile": [
                        "http://uk-koeln.de/fhir/StructureDefinition/Observation/ngs-panel"
                    ]
                },
                "status": "final",
                "code": {
                    "coding": [
                        {
                            "system": "http://uk-koeln.de/fhir/ValueSet/nNGM/molpatho-obs-codes",
                            "code": "NGS Panel"
                        }
                    ]
                },
                "subject": {
                    "reference": "http://localhost:4080/administration/Patient/d5459b35-72c5-45e8-96df-c502c415554e"
                },
                "category": [
                    {
                        "coding": [
                            {
                                "system": "http://terminology.hl7.org/CodeSystem/observation-category",
                                "code": "laboratory"
                            }
                        ]
                    }
                ],
                "method": {
                    "coding": [
                        {
                            "system": "http://ncit.nci.nih.gov",
                            "code": "C101293"
                        }
                    ]
                },
                "component": [
                    {
                        "valueCodeableConcept": {
                            "coding": [
                                {
                                    "system": "http://hl7.org/fhir/uv/genomics-reporting/ValueSet/hgnc",
                                    "code": "NM_000142.4"
                                }
                            ]
                        },
                        "code": {
                            "coding": [
                                {
                                    "system": "http://ncit.nci.nih.gov",
                                    "code": "48018-6"
                                }
                            ]
                        }
                    },
                    {
                        "valueString": "10",
                        "code": {
                            "coding": [
                                {
                                    "system": "http://ncit.nci.nih.gov",
                                    "code": "C13231"
                                }
                            ]
                        }
                    },
                    {
                        "valueString": "MutationCDNA 1.1",
                        "code": {
                            "coding": [
                                {
                                    "system": "http://loinc.org",
                                    "code": "48004-6"
                                }
                            ]
                        }
                    },
                    {
                        "valueString": "MutationProtein 1.1",
                        "code": {
                            "coding": [
                                {
                                    "system": "http://loinc.org",
                                    "code": "48005-3"
                                }
                            ]
                        }
                    },
                    {
                        "code": {
                            "coding": [
                                {
                                    "system": "http://ncit.nci.nih.gov",
                                    "code": "C154665"
                                }
                            ]
                        },
                        "valueQuantity": {
                            "value": 11,
                            "unit": "%",
                            "system": "http://unitsofmeasure.org",
                            "code": "%"
                        }
                    },
                    {
                        "valueString": "Full Coverage",
                        "code": {
                            "coding": [
                                {
                                    "system": "http://loinc.org",
                                    "code": "82121-5"
                                }
                            ]
                        }
                    },
                    {
                        "valueString": "Referenz 1.1.1",
                        "code": {
                            "coding": [
                                {
                                    "system": "http://loinc.org",
                                    "code": "51958-7"
                                }
                            ]
                        }
                    }
                ],
                "effectiveDateTime": "2020-12-18",
                "interpretation": [
                    {
                        "coding": [
                            {
                                "system": "http://hl7.org/fhir/ValueSet/observation-interpretation",
                                "code": "Prima"
                            }
                        ]
                    }
                ],
                "note": [
                    {
                        "text": "Kein Kommentar 1"
                    }
                ],
                "id": "19e46c4a-01e6-4331-948e-42e3d89f4b2b"
            },
            "request": {
                "method": "PUT",
                "url": "Observation/19e46c4a-01e6-4331-948e-42e3d89f4b2b"
            }
        },
        {
            "resource": {
                "resourceType": "Observation",
                "meta": {
                    "profile": [
                        "http://uk-koeln.de/fhir/StructureDefinition/Observation/ngs-panel"
                    ]
                },
                "status": "final",
                "code": {
                    "coding": [
                        {
                            "system": "http://uk-koeln.de/fhir/ValueSet/nNGM/molpatho-obs-codes",
                            "code": "NGS Panel"
                        }
                    ]
                },
                "subject": {
                    "reference": "http://localhost:4080/administration/Patient/d5459b35-72c5-45e8-96df-c502c415554e"
                },
                "category": [
                    {
                        "coding": [
                            {
                                "system": "http://terminology.hl7.org/CodeSystem/observation-category",
                                "code": "laboratory"
                            }
                        ]
                    }
                ],
                "method": {
                    "coding": [
                        {
                            "system": "http://ncit.nci.nih.gov",
                            "code": "C101293"
                        }
                    ]
                },
                "component": [
                    {
                        "valueCodeableConcept": {
                            "coding": [
                                {
                                    "system": "http://hl7.org/fhir/uv/genomics-reporting/ValueSet/hgnc",
                                    "code": "NM_004448.2"
                                }
                            ]
                        },
                        "code": {
                            "coding": [
                                {
                                    "system": "http://ncit.nci.nih.gov",
                                    "code": "48018-6"
                                }
                            ]
                        }
                    },
                    {
                        "valueString": "12",
                        "code": {
                            "coding": [
                                {
                                    "system": "http://ncit.nci.nih.gov",
                                    "code": "C13231"
                                }
                            ]
                        }
                    },
                    {
                        "valueString": "MutationCDNA 1.1.2",
                        "code": {
                            "coding": [
                                {
                                    "system": "http://loinc.org",
                                    "code": "48004-6"
                                }
                            ]
                        }
                    },
                    {
                        "valueString": "MutationProtein 1.1.2",
                        "code": {
                            "coding": [
                                {
                                    "system": "http://loinc.org",
                                    "code": "48005-3"
                                }
                            ]
                        }
                    },
                    {
                        "code": {
                            "coding": [
                                {
                                    "system": "http://ncit.nci.nih.gov",
                                    "code": "C154665"
                                }
                            ]
                        },
                        "valueQuantity": {
                            "value": 13,
                            "unit": "%",
                            "system": "http://unitsofmeasure.org",
                            "code": "%"
                        }
                    },
                    {
                        "valueString": "Half Coverage",
                        "code": {
                            "coding": [
                                {
                                    "system": "http://loinc.org",
                                    "code": "82121-5"
                                }
                            ]
                        }
                    },
                    {
                        "valueString": "Referenz 1.1.2",
                        "code": {
                            "coding": [
                                {
                                    "system": "http://loinc.org",
                                    "code": "51958-7"
                                }
                            ]
                        }
                    }
                ],
                "effectiveDateTime": "2020-12-18",
                "interpretation": [
                    {
                        "coding": [
                            {
                                "system": "http://hl7.org/fhir/ValueSet/observation-interpretation",
                                "code": "Okay"
                            }
                        ]
                    }
                ],
                "note": [
                    {
                        "text": "Kommentar 2"
                    }
                ],
                "id": "0e2a2245-a696-4ea1-97e3-9b378c1c04ac"
            },
            "request": {
                "method": "PUT",
                "url": "Observation/0e2a2245-a696-4ea1-97e3-9b378c1c04ac"
            }
        },
        {
            "resource": {
                "resourceType": "ServiceRequest",
                "meta": {
                    "profile": [
                        "http://uk-koeln.de/fhir/StructureDefinition/ServiceRequest/nNGM/tumorblock"
                    ]
                },
                "subject": {
                    "reference": "http://localhost:4080/administration/Patient/d5459b35-72c5-45e8-96df-c502c415554e"
                },
                "status": "active",
                "intent": "proposal",
                "code": {
                    "coding": [
                        {
                            "system": "http://ncit.nci.nih.gov",
                            "code": "C18202"
                        }
                    ]
                },
                "category": [
                    {
                        "coding": [
                            {
                                "system": "http://uk-koeln.de/fhir/ValueSet/nngm/anforderung-kategorie",
                                "code": "C12801",
                                "display": "Gewebediagnostik"
                            }
                        ]
                    }
                ],
                "reasonReference": [
                    {
                        "reference": "http://localhost:4080/administration/Observation/6c7f1bfa-b462-4a91-8399-3de421c0fcad"
                    }
                ],
                "doNotPerform": true,
                "id": "16f22bbb-21dd-452f-a2dd-488fe16c73bd",
                "requester": {
                    "reference": "http://localhost:4080/administration/Organization/07e54e0d-8d4f-4811-b82d-e1dd13a67597"
                }
            },
            "request": {
                "method": "PUT",
                "url": "ServiceRequest/16f22bbb-21dd-452f-a2dd-488fe16c73bd"
            }
        },
        {
            "resource": {
                "resourceType": "Observation",
                "meta": {
                    "profile": [
                        "http://uk-koeln.de/fhir/StructureDefinition/Observation/nNGM/histo-vorbefund"
                    ]
                },
                "subject": {
                    "reference": "http://localhost:4080/administration/Patient/d5459b35-72c5-45e8-96df-c502c415554e"
                },
                "status": "final",
                "category": [
                    {
                        "coding": [
                            {
                                "system": "http://hl7.org/fhir/observation-category",
                                "code": "laboratory"
                            }
                        ]
                    }
                ],
                "code": {
                    "coding": [
                        {
                            "system": "http://ncit.nci.nih.gov",
                            "code": "C19165"
                        }
                    ]
                },
                "id": "6c7f1bfa-b462-4a91-8399-3de421c0fcad"
            },
            "request": {
                "method": "PUT",
                "url": "Observation/6c7f1bfa-b462-4a91-8399-3de421c0fcad"
            }
        },
        {
            "resource": {
                "resourceType": "Organization",
                "meta": {
                    "profile": [
                        "http://clinicalsite.org/fhir/StructureDefinition/organizationalunit"
                    ]
                },
                "address": [
                    {
                        "use": "work",
                        "type": "postal"
                    },
                    {
                        "text": "Ameos Kreisklinik Aschersleben-Staßfurt,\r\nEislebener Str. 7 a,\r\n06449 Aschersleben"
                    }
                ],
                "name": "Abteilung für Pathologie - Ameos Kreisklinik Aschersleben-Staßfurt, Ameos Kreisklinik Aschersleben-Staßfurt",
                "id": "07e54e0d-8d4f-4811-b82d-e1dd13a67597"
            },
            "request": {
                "method": "PUT",
                "url": "Organization/07e54e0d-8d4f-4811-b82d-e1dd13a67597"
            }
        },
        {
            "resource": {
                "resourceType": "ServiceRequest",
                "meta": {
                    "profile": [
                        "http://uk-koeln.de/fhir/StructureDefinition/ServiceRequest/nNGM/testung"
                    ]
                },
                "subject": {
                    "reference": "http://localhost:4080/administration/Patient/d5459b35-72c5-45e8-96df-c502c415554e"
                },
                "_status": {
                    "extension": [
                        {
                            "url": "http://hl7.org/fhir/StructureDefinition/data-absent-reason",
                            "valueCode": "not-asked"
                        }
                    ]
                },
                "intent": "proposal",
                "category": [
                    {
                        "coding": [
                            {
                                "system": "http://uk-koeln.de/fhir/ValueSet/nngm/anforderung-kategorie",
                                "code": "C12434",
                                "display": "Blutdiagnostik (Liquid Biopsy)"
                            }
                        ]
                    }
                ],
                "reasonReference": [
                    {
                        "reference": "http://localhost:4080/administration/Observation/5fd3e6ec-8a5d-47bc-95e0-a9c271ecee5c"
                    }
                ],
                "id": "e63bae16-6a42-4abb-8245-8b569ed0a21d",
                "requester": {
                    "reference": "http://localhost:4080/administration/Organization/6f8b9a20-04f7-4441-95c5-d42233c61f73"
                }
            },
            "request": {
                "method": "PUT",
                "url": "ServiceRequest/e63bae16-6a42-4abb-8245-8b569ed0a21d"
            }
        },
        {
            "resource": {
                "resourceType": "Observation",
                "meta": {
                    "profile": [
                        "http://uk-koeln.de/fhir/StructureDefinition/Observation/nNGM/histo-vorbefund"
                    ]
                },
                "subject": {
                    "reference": "http://localhost:4080/administration/Patient/d5459b35-72c5-45e8-96df-c502c415554e"
                },
                "status": "final",
                "category": [
                    {
                        "coding": [
                            {
                                "system": "http://hl7.org/fhir/observation-category",
                                "code": "laboratory"
                            }
                        ]
                    }
                ],
                "code": {
                    "coding": [
                        {
                            "system": "http://ncit.nci.nih.gov",
                            "code": "C19165"
                        }
                    ]
                },
                "id": "1020fd3a-6635-4918-b6a2-0c19768db24d"
            },
            "request": {
                "method": "PUT",
                "url": "Observation/1020fd3a-6635-4918-b6a2-0c19768db24d"
            }
        },
        {
            "resource": {
                "resourceType": "Observation",
                "meta": {
                    "profile": [
                        "http://uk-koeln.de/fhir/StructureDefinition/Observation/nNGM/progress-relapse"
                    ]
                },
                "status": "final",
                "category": [
                    {
                        "coding": [
                            {
                                "system": "http://hl7.org/fhir/ValueSet/observation-category",
                                "code": "survey"
                            }
                        ]
                    }
                ],
                "code": {
                    "coding": [
                        {
                            "system": "http://ncit.nci.nih.gov",
                            "code": "C25630"
                        }
                    ]
                },
                "subject": {
                    "reference": "http://localhost:4080/administration/Patient/d5459b35-72c5-45e8-96df-c502c415554e"
                },
                "valueBoolean": true,
                "effectiveDateTime": "2021-01-04",
                "id": "049c5d41-fa31-49e1-89c6-cab2183e3cab"
            },
            "request": {
                "method": "PUT",
                "url": "Observation/049c5d41-fa31-49e1-89c6-cab2183e3cab"
            }
        },
        {
            "resource": {
                "resourceType": "Observation",
                "meta": {
                    "profile": [
                        "http://uk-koeln.de/fhir/StructureDefinition/Observation/nNGM/tki-resistenz-alk"
                    ]
                },
                "status": "final",
                "category": [
                    {
                        "coding": [
                            {
                                "system": "http://ncit.nci.nih.gov",
                                "code": "C1967"
                            }
                        ]
                    }
                ],
                "code": {
                    "coding": [
                        {
                            "system": "http://uk-koeln.de/fhir/ValueSet/nngm/tki-resistenz",
                            "code": "C142114"
                        }
                    ]
                },
                "subject": {
                    "reference": "http://localhost:4080/administration/Patient/d5459b35-72c5-45e8-96df-c502c415554e"
                },
                "component": [
                    {
                        "code": {
                            "coding": [
                                {
                                    "system": "http://ncit.nci.nih.gov",
                                    "code": "C62721"
                                }
                            ]
                        },
                        "valueCodeableConcept": {
                            "text": "Therapie 3_1"
                        },
                        "extension": [
                            {
                                "url": "http://uk-koeln.de/fhir/StructureDefinition/Extension/nNGM/observation-component-order",
                                "valueInteger": 1
                            }
                        ]
                    },
                    {
                        "code": {
                            "coding": [
                                {
                                    "system": "http://ncit.nci.nih.gov",
                                    "code": "C62721"
                                }
                            ]
                        },
                        "valueCodeableConcept": {
                            "text": "Therapie 3_2"
                        },
                        "extension": [
                            {
                                "url": "http://uk-koeln.de/fhir/StructureDefinition/Extension/nNGM/observation-component-order",
                                "valueInteger": 2
                            }
                        ]
                    },
                    {
                        "code": {
                            "coding": [
                                {
                                    "system": "http://ncit.nci.nih.gov",
                                    "code": "C62721"
                                }
                            ]
                        },
                        "valueCodeableConcept": {
                            "text": "Therapie 3_3"
                        },
                        "extension": [
                            {
                                "url": "http://uk-koeln.de/fhir/StructureDefinition/Extension/nNGM/observation-component-order",
                                "valueInteger": 3
                            }
                        ]
                    },
                    {
                        "code": {
                            "coding": [
                                {
                                    "system": "http://ncit.nci.nih.gov",
                                    "code": "C62721"
                                }
                            ]
                        },
                        "valueCodeableConcept": {
                            "text": "Therapie 3_4"
                        },
                        "extension": [
                            {
                                "url": "http://uk-koeln.de/fhir/StructureDefinition/Extension/nNGM/observation-component-order",
                                "valueInteger": 4
                            }
                        ]
                    },
                    {
                        "code": {
                            "coding": [
                                {
                                    "system": "http://ncit.nci.nih.gov",
                                    "code": "C28510"
                                }
                            ]
                        },
                        "valueString": "ALK-Fusionspartner"
                    }
                ],
                "effectiveDateTime": "2021-01-04",
                "id": "a4fc38ff-d32b-4e04-b613-54ca7673da42"
            },
            "request": {
                "method": "PUT",
                "url": "Observation/a4fc38ff-d32b-4e04-b613-54ca7673da42"
            }
        },
        {
            "resource": {
                "resourceType": "Observation",
                "meta": {
                    "profile": [
                        "http://uk-koeln.de/fhir/StructureDefinition/Observation/ihc"
                    ]
                },
                "status": "final",
                "category": [
                    {
                        "coding": [
                            {
                                "system": "http://terminology.hl7.org/CodeSystem/observation-category",
                                "code": "laboratory"
                            }
                        ]
                    }
                ],
                "method": {
                    "coding": [
                        {
                            "system": "http://ncit.nci.nih.gov",
                            "code": "C23020"
                        }
                    ]
                },
                "code": {
                    "coding": [
                        {
                            "system": "http://uk-koeln.de/fhir/ValueSet/nNGM/molpatho-obs-codes",
                            "code": "TTF1"
                        }
                    ]
                },
                "subject": {
                    "reference": "http://localhost:4080/administration/Patient/d5459b35-72c5-45e8-96df-c502c415554e"
                },
                "effectiveDateTime": "2020-12-19",
                "component": [
                    {
                        "valueString": "Expression",
                        "code": {
                            "coding": [
                                {
                                    "system": "http://ncit.nci.nih.gov",
                                    "code": "C16977"
                                }
                            ]
                        }
                    }
                ],
                "valueCodeableConcept": {
                    "coding": [
                        {
                            "system": "http://uk-koeln.de/fhir/ValueSet/nNGM/ergebnis-posNegIndNoCall",
                            "code": "LA6577-6",
                            "display": "Negative"
                        }
                    ]
                },
                "id": "9e30651a-5d4f-4bca-952c-808203ad4e92"
            },
            "request": {
                "method": "PUT",
                "url": "Observation/9e30651a-5d4f-4bca-952c-808203ad4e92"
            }
        },
        {
            "resource": {
                "resourceType": "Observation",
                "meta": {
                    "profile": [
                        "http://uk-koeln.de/fhir/StructureDefinition/Observation/ish"
                    ]
                },
                "status": "final",
                "category": [
                    {
                        "coding": [
                            {
                                "system": "http://terminology.hl7.org/CodeSystem/observation-category",
                                "code": "laboratory"
                            }
                        ]
                    }
                ],
                "method": {
                    "coding": [
                        {
                            "system": "http://ncit.nci.nih.gov",
                            "code": "C23022"
                        }
                    ]
                },
                "code": {
                    "coding": [
                        {
                            "system": "http://uk-koeln.de/fhir/ValueSet/nNGM/molpatho-obs-codes",
                            "code": "ROS1"
                        }
                    ]
                },
                "effectiveDateTime": "2020-12-19",
                "component": [
                    {
                        "valueString": "Fusion",
                        "code": {
                            "coding": [
                                {
                                    "system": "http://ncit.nci.nih.gov",
                                    "code": "C16977"
                                }
                            ]
                        }
                    },
                    {
                        "valueQuantity": {
                            "value": 1,
                            "system": "http://unitsofmeasure.org",
                            "unit": "percentage",
                            "code": "%"
                        },
                        "code": {
                            "coding": [
                                {
                                    "system": "http://ncit.nci.nih.gov",
                                    "code": "C70460"
                                }
                            ]
                        }
                    },
                    {
                        "valueQuantity": {
                            "value": 2,
                            "system": "http://unitsofmeasure.org",
                            "unit": "percentage",
                            "code": "%"
                        },
                        "code": {
                            "coding": [
                                {
                                    "system": "http://ncit.nci.nih.gov",
                                    "code": "C36331"
                                }
                            ]
                        }
                    }
                ],
                "subject": {
                    "reference": "http://localhost:4080/administration/Patient/d5459b35-72c5-45e8-96df-c502c415554e"
                },
                "valueCodeableConcept": {
                    "coding": [
                        {
                            "system": "http://uk-koeln.de/fhir/ValueSet/nNGM/ergebnis-posNegIndNoCall",
                            "code": "LA6576-8",
                            "display": "Positive"
                        }
                    ]
                },
                "id": "360e6f82-5957-4089-b05f-bba3724caad7"
            },
            "request": {
                "method": "PUT",
                "url": "Observation/360e6f82-5957-4089-b05f-bba3724caad7"
            }
        },
        {
            "resource": {
                "resourceType": "Observation",
                "meta": {
                    "profile": [
                        "http://uk-koeln.de/fhir/StructureDefinition/Observation/fish"
                    ]
                },
                "status": "final",
                "category": [
                    {
                        "coding": [
                            {
                                "system": "http://terminology.hl7.org/CodeSystem/observation-category",
                                "code": "laboratory"
                            }
                        ]
                    }
                ],
                "method": {
                    "coding": [
                        {
                            "system": "http://ncit.nci.nih.gov",
                            "code": "C17563"
                        }
                    ]
                },
                "code": {
                    "coding": [
                        {
                            "system": "http://uk-koeln.de/fhir/ValueSet/nNGM/molpatho-obs-codes",
                            "code": "ROS1"
                        }
                    ]
                },
                "subject": {
                    "reference": "http://localhost:4080/administration/Patient/d5459b35-72c5-45e8-96df-c502c415554e"
                },
                "effectiveDateTime": "2020-12-19",
                "component": [
                    {
                        "valueString": "Fusion",
                        "code": {
                            "coding": [
                                {
                                    "system": "http://ncit.nci.nih.gov",
                                    "code": "C16977"
                                }
                            ]
                        }
                    },
                    {
                        "valueQuantity": {
                            "value": 3,
                            "system": "http://unitsofmeasure.org",
                            "unit": "percentage",
                            "code": "%"
                        },
                        "code": {
                            "coding": [
                                {
                                    "system": "http://ncit.nci.nih.gov",
                                    "code": "C70460"
                                }
                            ]
                        }
                    },
                    {
                        "valueQuantity": {
                            "value": 4,
                            "system": "http://unitsofmeasure.org",
                            "unit": "percentage",
                            "code": "%"
                        },
                        "code": {
                            "coding": [
                                {
                                    "system": "http://ncit.nci.nih.gov",
                                    "code": "C36331"
                                }
                            ]
                        }
                    }
                ],
                "valueCodeableConcept": {
                    "coding": [
                        {
                            "system": "http://uk-koeln.de/fhir/ValueSet/nNGM/ergebnis-posNegIndNoCall",
                            "code": "LA6577-6",
                            "display": "Negative"
                        }
                    ]
                },
                "id": "22190439-9e46-4fb4-9c4a-b39bf9be0a1c"
            },
            "request": {
                "method": "PUT",
                "url": "Observation/22190439-9e46-4fb4-9c4a-b39bf9be0a1c"
            }
        },
        {
            "resource": {
                "resourceType": "Observation",
                "meta": {
                    "profile": [
                        "http://uk-koeln.de/fhir/StructureDefinition/Observation/fasttrack"
                    ]
                },
                "status": "final",
                "category": [
                    {
                        "coding": [
                            {
                                "system": "http://terminology.hl7.org/CodeSystem/observation-category",
                                "code": "laboratory"
                            }
                        ]
                    }
                ],
                "method": {
                    "coding": [
                        {
                            "system": "http://ncit.nci.nih.gov",
                            "code": "C101293"
                        }
                    ]
                },
                "code": {
                    "coding": [
                        {
                            "system": "http://uk-koeln.de/fhir/ValueSet/fasttrack-obs-codes",
                            "code": "C135715",
                            "display": "KRAS Exon 2 Mutation"
                        }
                    ]
                },
                "subject": {
                    "reference": "http://localhost:4080/administration/Patient/d5459b35-72c5-45e8-96df-c502c415554e"
                },
                "effectiveDateTime": "2020-12-19",
                "valueCodeableConcept": {
                    "coding": [
                        {
                            "system": "http://uk-koeln.de/fhir/ValueSet/nNGM/ergebnis-fasttrack",
                            "code": "keine aktivierende Mutation"
                        }
                    ]
                },
                "component": [
                    {
                        "code": {
                            "coding": [
                                {
                                    "system": "http://loinc.org",
                                    "code": "48004-6"
                                }
                            ]
                        },
                        "valueString": "ChangeDNA 2"
                    },
                    {
                        "code": {
                            "coding": [
                                {
                                    "system": "http://loinc.org",
                                    "code": "48005-3"
                                }
                            ]
                        },
                        "valueString": "ChangeProtein 2"
                    }
                ],
                "id": "f6f4f6c6-04b0-4ea2-a415-f9cfcdbea609"
            },
            "request": {
                "method": "PUT",
                "url": "Observation/f6f4f6c6-04b0-4ea2-a415-f9cfcdbea609"
            }
        },
        {
            "resource": {
                "resourceType": "Device",
                "id": "8c0508c3-ebe7-4a90-848b-faae0d568703",
                "meta": {
                    "profile": [
                        "http://uk-koeln.de/fhir/StructureDefinition/Device"
                    ]
                },
                "version": [
                    {
                        "value": "Lun3"
                    }
                ]
            },
            "request": {
                "method": "PUT",
                "url": "Device/8c0508c3-ebe7-4a90-848b-faae0d568703"
            }
        },
        {
            "resource": {
                "resourceType": "DiagnosticReport",
                "meta": {
                    "profile": [
                        "http://uk-koeln.de/fhir/StructureDefinition/DiagnosticReport/nNGM/befund"
                    ]
                },
                "_status": {
                    "extension": [
                        {
                            "url": "http://hl7.org/fhir/StructureDefinition/data-absent-reason",
                            "valueCode": "not-asked"
                        }
                    ]
                },
                "code": {
                    "extension": [
                        {
                            "url": "http://hl7.org/fhir/StructureDefinition/data-absent-reason",
                            "valueCode": "not-asked"
                        }
                    ]
                },
                "subject": {
                    "reference": "http://localhost:4080/administration/Patient/d5459b35-72c5-45e8-96df-c502c415554e"
                },
                "issued": "2020-12-19",
                "identifier": [
                    {
                        "system": "http://uk-koeln.de/NamingSystem/nNGM/befundnummer",
                        "value": "1212"
                    }
                ],
                "id": "4e041252-e01c-4f49-adac-d08950b69f2e",
                "result": [
                    {
                        "reference": "http://localhost:4080/administration/Observation/b967ce99-7efc-433f-9459-e4f60fe796ae"
                    },
                    {
                        "reference": "http://localhost:4080/administration/Observation/e5be56ac-6fc4-40da-973d-e19e10055d7f"
                    },
                    {
                        "reference": "http://localhost:4080/administration/Observation/9e30651a-5d4f-4bca-952c-808203ad4e92"
                    },
                    {
                        "reference": "http://localhost:4080/administration/Observation/360e6f82-5957-4089-b05f-bba3724caad7"
                    },
                    {
                        "reference": "http://localhost:4080/administration/Observation/22190439-9e46-4fb4-9c4a-b39bf9be0a1c"
                    },
                    {
                        "reference": "http://localhost:4080/administration/Observation/2a71e9e1-0568-4900-9104-7092be3b8d61"
                    },
                    {
                        "reference": "http://localhost:4080/administration/Observation/48f036b4-062a-4ded-800d-e9dbb2af7546"
                    },
                    {
                        "reference": "http://localhost:4080/administration/Observation/70b56f76-108b-45d3-b68d-a853ddc5299c"
                    },
                    {
                        "reference": "http://localhost:4080/administration/Observation/db621f62-2cb9-495c-84bb-992ff467858e"
                    },
                    {
                        "reference": "http://localhost:4080/administration/Observation/f6f4f6c6-04b0-4ea2-a415-f9cfcdbea609"
                    }
                ]
            },
            "request": {
                "method": "PUT",
                "url": "DiagnosticReport/4e041252-e01c-4f49-adac-d08950b69f2e"
            }
        },
        {
            "resource": {
                "resourceType": "Observation",
                "meta": {
                    "profile": [
                        "http://uk-koeln.de/fhir/StructureDefinition/Observation/ngs-fusion-expression"
                    ]
                },
                "status": "final",
                "category": [
                    {
                        "coding": [
                            {
                                "system": "http://terminology.hl7.org/CodeSystem/observation-category",
                                "code": "laboratory"
                            }
                        ]
                    }
                ],
                "method": {
                    "coding": [
                        {
                            "system": "http://ncit.nci.nih.gov",
                            "code": "C101293"
                        }
                    ]
                },
                "code": {
                    "coding": [
                        {
                            "system": "http://uk-koeln.de/fhir/ValueSet/nNGM/molpatho-obs-codes",
                            "code": "Sonstiges"
                        }
                    ]
                },
                "subject": {
                    "reference": "http://localhost:4080/administration/Patient/d5459b35-72c5-45e8-96df-c502c415554e"
                },
                "effectiveDateTime": "2020-12-19",
                "valueCodeableConcept": {
                    "coding": [
                        {
                            "system": "http://uk-koeln.de/fhir/ValueSet/nNGM/ergebnis-posNegIndNoCall",
                            "code": "LA6577-6",
                            "display": "Negative"
                        }
                    ]
                },
                "component": [
                    {
                        "valueCodeableConcept": {
                            "coding": [
                                {
                                    "system": "http://uk-koeln.de/fhir/ValueSet/hgnc-codes",
                                    "code": "Erster Partner 2.1"
                                }
                            ]
                        },
                        "code": {
                            "coding": [
                                {
                                    "system": "http://loinc.org",
                                    "code": "48018-6"
                                }
                            ]
                        }
                    },
                    {
                        "valueString": "Zweiter Partner 2.1",
                        "code": {
                            "coding": [
                                {
                                    "system": "http://ncit.nci.nih.gov",
                                    "code": "C28510"
                                }
                            ]
                        }
                    },
                    {
                        "valueInteger": 5,
                        "code": {
                            "coding": [
                                {
                                    "system": "http://loinc.org",
                                    "code": "82121-5"
                                }
                            ]
                        }
                    },
                    {
                        "valueInteger": 6,
                        "code": {
                            "coding": [
                                {
                                    "system": "http://uk-koeln.de/fhir/CodeSystem/tbd-codes",
                                    "code": "erster-fusionspartner-exon"
                                }
                            ]
                        }
                    },
                    {
                        "valueInteger": 7,
                        "code": {
                            "coding": [
                                {
                                    "system": "http://uk-koeln.de/fhir/CodeSystem/tbd-codes",
                                    "code": "zweiter-fusionspartner-exon"
                                }
                            ]
                        }
                    }
                ],
                "id": "2a71e9e1-0568-4900-9104-7092be3b8d61"
            },
            "request": {
                "method": "PUT",
                "url": "Observation/2a71e9e1-0568-4900-9104-7092be3b8d61"
            }
        },
        {
            "resource": {
                "resourceType": "Observation",
                "meta": {
                    "profile": [
                        "http://uk-koeln.de/fhir/StructureDefinition/Observation/ngs-fusion-expression"
                    ]
                },
                "status": "final",
                "category": [
                    {
                        "coding": [
                            {
                                "system": "http://terminology.hl7.org/CodeSystem/observation-category",
                                "code": "laboratory"
                            }
                        ]
                    }
                ],
                "method": {
                    "coding": [
                        {
                            "system": "http://ncit.nci.nih.gov",
                            "code": "C101293"
                        }
                    ]
                },
                "code": {
                    "coding": [
                        {
                            "system": "http://uk-koeln.de/fhir/ValueSet/nNGM/molpatho-obs-codes",
                            "code": "Sonstiges"
                        }
                    ]
                },
                "subject": {
                    "reference": "http://localhost:4080/administration/Patient/d5459b35-72c5-45e8-96df-c502c415554e"
                },
                "effectiveDateTime": "2020-12-19",
                "valueCodeableConcept": {
                    "coding": [
                        {
                            "system": "http://uk-koeln.de/fhir/ValueSet/nNGM/ergebnis-posNegIndNoCall",
                            "code": "LA6577-6",
                            "display": "Negative"
                        }
                    ]
                },
                "component": [
                    {
                        "valueCodeableConcept": {
                            "coding": [
                                {
                                    "system": "http://uk-koeln.de/fhir/ValueSet/hgnc-codes",
                                    "code": "Erster Partner 2.2"
                                }
                            ]
                        },
                        "code": {
                            "coding": [
                                {
                                    "system": "http://loinc.org",
                                    "code": "48018-6"
                                }
                            ]
                        }
                    },
                    {
                        "valueString": "Zweiter Partner 2.2",
                        "code": {
                            "coding": [
                                {
                                    "system": "http://ncit.nci.nih.gov",
                                    "code": "C28510"
                                }
                            ]
                        }
                    },
                    {
                        "valueInteger": 8,
                        "code": {
                            "coding": [
                                {
                                    "system": "http://loinc.org",
                                    "code": "82121-5"
                                }
                            ]
                        }
                    },
                    {
                        "valueInteger": 9,
                        "code": {
                            "coding": [
                                {
                                    "system": "http://uk-koeln.de/fhir/CodeSystem/tbd-codes",
                                    "code": "erster-fusionspartner-exon"
                                }
                            ]
                        }
                    },
                    {
                        "valueInteger": 10,
                        "code": {
                            "coding": [
                                {
                                    "system": "http://uk-koeln.de/fhir/CodeSystem/tbd-codes",
                                    "code": "zweiter-fusionspartner-exon"
                                }
                            ]
                        }
                    }
                ],
                "id": "48f036b4-062a-4ded-800d-e9dbb2af7546"
            },
            "request": {
                "method": "PUT",
                "url": "Observation/48f036b4-062a-4ded-800d-e9dbb2af7546"
            }
        },
        {
            "resource": {
                "resourceType": "Observation",
                "meta": {
                    "profile": [
                        "http://uk-koeln.de/fhir/StructureDefinition/Observation/ngs-fusion-expression"
                    ]
                },
                "status": "final",
                "category": [
                    {
                        "coding": [
                            {
                                "system": "http://terminology.hl7.org/CodeSystem/observation-category",
                                "code": "laboratory"
                            }
                        ]
                    }
                ],
                "method": {
                    "coding": [
                        {
                            "system": "http://ncit.nci.nih.gov",
                            "code": "C101293"
                        }
                    ]
                },
                "code": {
                    "coding": [
                        {
                            "system": "http://uk-koeln.de/fhir/ValueSet/nNGM/molpatho-obs-codes",
                            "code": "Sonstiges"
                        }
                    ]
                },
                "subject": {
                    "reference": "http://localhost:4080/administration/Patient/d5459b35-72c5-45e8-96df-c502c415554e"
                },
                "effectiveDateTime": "2020-12-19",
                "valueCodeableConcept": {
                    "coding": [
                        {
                            "system": "http://uk-koeln.de/fhir/ValueSet/nNGM/ergebnis-posNegIndNoCall",
                            "code": "LA18198-4",
                            "display": "No call"
                        }
                    ]
                },
                "component": [
                    {
                        "valueCodeableConcept": {
                            "coding": [
                                {
                                    "system": "http://uk-koeln.de/fhir/ValueSet/hgnc-codes",
                                    "code": "Erster Partner 2.3"
                                }
                            ]
                        },
                        "code": {
                            "coding": [
                                {
                                    "system": "http://loinc.org",
                                    "code": "48018-6"
                                }
                            ]
                        }
                    },
                    {
                        "valueString": "Zweiter Partner 2.3",
                        "code": {
                            "coding": [
                                {
                                    "system": "http://ncit.nci.nih.gov",
                                    "code": "C28510"
                                }
                            ]
                        }
                    },
                    {
                        "valueInteger": 11,
                        "code": {
                            "coding": [
                                {
                                    "system": "http://loinc.org",
                                    "code": "82121-5"
                                }
                            ]
                        }
                    },
                    {
                        "valueInteger": 12,
                        "code": {
                            "coding": [
                                {
                                    "system": "http://uk-koeln.de/fhir/CodeSystem/tbd-codes",
                                    "code": "erster-fusionspartner-exon"
                                }
                            ]
                        }
                    },
                    {
                        "valueInteger": 13,
                        "code": {
                            "coding": [
                                {
                                    "system": "http://uk-koeln.de/fhir/CodeSystem/tbd-codes",
                                    "code": "zweiter-fusionspartner-exon"
                                }
                            ]
                        }
                    }
                ],
                "id": "70b56f76-108b-45d3-b68d-a853ddc5299c"
            },
            "request": {
                "method": "PUT",
                "url": "Observation/70b56f76-108b-45d3-b68d-a853ddc5299c"
            }
        },
        {
            "resource": {
                "resourceType": "Observation",
                "meta": {
                    "profile": [
                        "http://uk-koeln.de/fhir/StructureDefinition/Observation/ngs-panel"
                    ]
                },
                "status": "final",
                "code": {
                    "coding": [
                        {
                            "system": "http://uk-koeln.de/fhir/ValueSet/nNGM/molpatho-obs-codes",
                            "code": "NGS Panel"
                        }
                    ]
                },
                "subject": {
                    "reference": "http://localhost:4080/administration/Patient/d5459b35-72c5-45e8-96df-c502c415554e"
                },
                "category": [
                    {
                        "coding": [
                            {
                                "system": "http://terminology.hl7.org/CodeSystem/observation-category",
                                "code": "laboratory"
                            }
                        ]
                    }
                ],
                "method": {
                    "coding": [
                        {
                            "system": "http://ncit.nci.nih.gov",
                            "code": "C101293"
                        }
                    ]
                },
                "component": [
                    {
                        "valueCodeableConcept": {
                            "coding": [
                                {
                                    "system": "http://hl7.org/fhir/uv/genomics-reporting/ValueSet/hgnc",
                                    "code": "NM_000142.4"
                                }
                            ]
                        },
                        "code": {
                            "coding": [
                                {
                                    "system": "http://ncit.nci.nih.gov",
                                    "code": "48018-6"
                                }
                            ]
                        }
                    },
                    {
                        "valueString": "14",
                        "code": {
                            "coding": [
                                {
                                    "system": "http://ncit.nci.nih.gov",
                                    "code": "C13231"
                                }
                            ]
                        }
                    },
                    {
                        "valueString": "MutationCDNA 1.2.1",
                        "code": {
                            "coding": [
                                {
                                    "system": "http://loinc.org",
                                    "code": "48004-6"
                                }
                            ]
                        }
                    },
                    {
                        "valueString": "MutationProtein 1.2.1",
                        "code": {
                            "coding": [
                                {
                                    "system": "http://loinc.org",
                                    "code": "48005-3"
                                }
                            ]
                        }
                    },
                    {
                        "code": {
                            "coding": [
                                {
                                    "system": "http://ncit.nci.nih.gov",
                                    "code": "C154665"
                                }
                            ]
                        },
                        "valueQuantity": {
                            "value": 15,
                            "unit": "%",
                            "system": "http://unitsofmeasure.org",
                            "code": "%"
                        }
                    },
                    {
                        "valueString": "Full Outer Coverage",
                        "code": {
                            "coding": [
                                {
                                    "system": "http://loinc.org",
                                    "code": "82121-5"
                                }
                            ]
                        }
                    },
                    {
                        "valueString": "Referenz 1.2.1",
                        "code": {
                            "coding": [
                                {
                                    "system": "http://loinc.org",
                                    "code": "51958-7"
                                }
                            ]
                        }
                    }
                ],
                "effectiveDateTime": "2020-12-19",
                "interpretation": [
                    {
                        "coding": [
                            {
                                "system": "http://hl7.org/fhir/ValueSet/observation-interpretation",
                                "code": "Einwandfrei"
                            }
                        ]
                    }
                ],
                "note": [
                    {
                        "text": "Kommentar"
                    }
                ],
                "id": "e5be56ac-6fc4-40da-973d-e19e10055d7f"
            },
            "request": {
                "method": "PUT",
                "url": "Observation/e5be56ac-6fc4-40da-973d-e19e10055d7f"
            }
        },
        {
            "resource": {
                "resourceType": "Observation",
                "meta": {
                    "profile": [
                        "http://uk-koeln.de/fhir/StructureDefinition/Observation/ngs-panel"
                    ]
                },
                "status": "final",
                "code": {
                    "coding": [
                        {
                            "system": "http://uk-koeln.de/fhir/ValueSet/nNGM/molpatho-obs-codes",
                            "code": "NGS Panel"
                        }
                    ]
                },
                "subject": {
                    "reference": "http://localhost:4080/administration/Patient/d5459b35-72c5-45e8-96df-c502c415554e"
                },
                "category": [
                    {
                        "coding": [
                            {
                                "system": "http://terminology.hl7.org/CodeSystem/observation-category",
                                "code": "laboratory"
                            }
                        ]
                    }
                ],
                "method": {
                    "coding": [
                        {
                            "system": "http://ncit.nci.nih.gov",
                            "code": "C101293"
                        }
                    ]
                },
                "component": [
                    {
                        "valueCodeableConcept": {
                            "coding": [
                                {
                                    "system": "http://hl7.org/fhir/uv/genomics-reporting/ValueSet/hgnc",
                                    "code": "NM_005896.2"
                                }
                            ]
                        },
                        "code": {
                            "coding": [
                                {
                                    "system": "http://ncit.nci.nih.gov",
                                    "code": "48018-6"
                                }
                            ]
                        }
                    },
                    {
                        "valueString": "16",
                        "code": {
                            "coding": [
                                {
                                    "system": "http://ncit.nci.nih.gov",
                                    "code": "C13231"
                                }
                            ]
                        }
                    },
                    {
                        "valueString": "MutationCDNA 1.2.2",
                        "code": {
                            "coding": [
                                {
                                    "system": "http://loinc.org",
                                    "code": "48004-6"
                                }
                            ]
                        }
                    },
                    {
                        "valueString": "MutationProtein 1.2.2",
                        "code": {
                            "coding": [
                                {
                                    "system": "http://loinc.org",
                                    "code": "48005-3"
                                }
                            ]
                        }
                    },
                    {
                        "code": {
                            "coding": [
                                {
                                    "system": "http://ncit.nci.nih.gov",
                                    "code": "C154665"
                                }
                            ]
                        },
                        "valueQuantity": {
                            "value": 17,
                            "unit": "%",
                            "system": "http://unitsofmeasure.org",
                            "code": "%"
                        }
                    },
                    {
                        "valueString": "Coverage",
                        "code": {
                            "coding": [
                                {
                                    "system": "http://loinc.org",
                                    "code": "82121-5"
                                }
                            ]
                        }
                    },
                    {
                        "valueString": "Referenz 1.2.2",
                        "code": {
                            "coding": [
                                {
                                    "system": "http://loinc.org",
                                    "code": "51958-7"
                                }
                            ]
                        }
                    }
                ],
                "effectiveDateTime": "2020-12-19",
                "interpretation": [
                    {
                        "coding": [
                            {
                                "system": "http://hl7.org/fhir/ValueSet/observation-interpretation",
                                "code": "Nun ja"
                            }
                        ]
                    }
                ],
                "note": [
                    {
                        "text": "Kommentar 2"
                    }
                ],
                "id": "3224627f-ea20-48f1-876d-d553213ab5d0"
            },
            "request": {
                "method": "PUT",
                "url": "Observation/3224627f-ea20-48f1-876d-d553213ab5d0"
            }
        }
    ],
    "id": "2332ec4a-b892-4dfc-8a68-f924a9e46bd3",
    "type": "transaction"
}