{
    "resourceType": "Bundle",
    "entry": [
        {
            "resource": {
                "resourceType": "Composition",
                "title": "Stammdaten pseudonymisiert",
                "id": "ec95ed30-955a-4c74-a322-3bdb02254a53",
                "meta": {
                    "profile": [
                        "http://uk-koeln.de/fhir/StructureDefinition/Composition/nNGM/Stammdaten-pseudonymisiert"
                    ]
                },
                "status": "final",
                "type": {
                    "coding": [
                        {
                            "system": "http://uk-koeln.de/fhir/CodeSystem/nngm/compositions",
                            "code": "stammdaten"
                        }
                    ]
                },
                "category": [
                    {
                        "coding": [
                            {
                                "system": "http://uk-koeln.de/fhir/CodeSystem/nngm/composition-category",
                                "code": "psn"
                            }
                        ]
                    }
                ],
                "subject": {
                    "reference": "https://vonk.nngm-qat.dev.healex.systems/administration/5014fdda-4a6e-47d1-abdd-4632c66c9bf2",
                    "identifier": {
                        "system": "http://uk-koeln.de/fhir/NamingSystem/nNGM/patient-identifier",
                        "value": ""
                    }
                },
                "date": "2021-01-25T16:44:55+01:00",
                "author": [
                    {
                        "extension": [
                            {
                                "url": "http://hl7.org/fhir/StructureDefinition/data-absent-reason",
                                "valueCode": "not-asked"
                            }
                        ]
                    }
                ],
                "section": [
                    {
                        "code": {
                            "coding": [
                                {
                                    "system": "http://uk-koeln.de/fhir/CodeSystem/nngm/sections",
                                    "code": "stammdaten"
                                }
                            ]
                        },
                        "entry": [
                            {
                                "reference": "https://vonk.nngm-qat.dev.healex.systems/administration/Patient/5014fdda-4a6e-47d1-abdd-4632c66c9bf2"
                            },
                            {
                                "reference": "https://vonk.nngm-qat.dev.healex.systems/administration/Coverage/55f4223c-3af6-4e2c-81e0-9daaf03c1e27"
                            },
                            {
                                "reference": "https://vonk.nngm-qat.dev.healex.systems/administration/EpisodeOfCare/b739333f-7ba2-423f-b007-c57f88beb190"
                            },
                            {
                                "reference": "https://vonk.nngm-qat.dev.healex.systems/administration/Consent/b8e0f86d-9bf5-4f01-a625-ac968aad26a4"
                            },
                            {
                                "reference": "https://vonk.nngm-qat.dev.healex.systems/administration/Consent/c1e54b52-2ae3-40a7-a42d-dc8f6900c834"
                            }
                        ]
                    }
                ]
            },
            "request": {
                "method": "PUT",
                "url": "Composition/ec95ed30-955a-4c74-a322-3bdb02254a53"
            }
        },
        {
            "resource": {
                "resourceType": "Patient",
                "meta": {
                    "profile": [
                        "http://uk-koeln.de/fhir/StructureDefinition/Patient/nNGM/pseudonymisiert"
                    ]
                },
                "identifier": [
                    {
                        "system": "http://uk-koeln.de/fhir/NamingSystem/nNGM/patient-identifier",
                        "value": ""
                    }
                ],
                "birthDate": "2021-01-26",
                "id": "5014fdda-4a6e-47d1-abdd-4632c66c9bf2",
                "gender": "other",
                "_gender": {
                    "extension": [
                        {
                            "url": "http://fhir.de/StructureDefinition/gender-amtlich-de",
                            "valueCoding": {
                                "system": "http://fhir.de/CodeSystem/gender-amtlich-de",
                                "code": "D",
                                "display": "divers"
                            }
                        }
                    ]
                },
                "deceasedDateTime": "2020-02-01",
                "extension": [
                    {
                        "url": "http://uk-koeln.de/fhir/StructureDefinition/Extension/nNGM/izt",
                        "valueCodeableConcept": {
                            "coding": [
                                {
                                    "system": "http://uk-koeln.de/fhir/CodeSystem/nngm/izt",
                                    "code": "Arztbrief"
                                }
                            ]
                        }
                    }
                ]
            },
            "request": {
                "method": "PUT",
                "url": "Patient/5014fdda-4a6e-47d1-abdd-4632c66c9bf2"
            }
        },
        {
            "resource": {
                "resourceType": "Coverage",
                "meta": {
                    "profile": [
                        "http://uk-koeln.de/fhir/StructureDefinition/Coverage/nNGM/pseudonymisiert"
                    ]
                },
                "status": "active",
                "beneficiary": {
                    "reference": "https://vonk.nngm-qat.dev.healex.systems/administration/Patient/5014fdda-4a6e-47d1-abdd-4632c66c9bf2"
                },
                "subscriber": {
                    "reference": "https://vonk.nngm-qat.dev.healex.systems/administration/Patient/5014fdda-4a6e-47d1-abdd-4632c66c9bf2"
                },
                "type": {
                    "coding": [
                        {
                            "system": "http://fhir.de/CodeSystem/versicherungsart-de-basis",
                            "code": "PKV"
                        }
                    ]
                },
                "payor": [
                    {
                        "display": "Allianz Private Krankenversicherung"
                    }
                ],
                "extension": [
                    {
                        "url": "http://uk-koeln.de/fhir/StructureDefinition/Extension/nNGM/kooperationsvereinbarung",
                        "valueBoolean": false
                    },
                    {
                        "url": "http://uk-koeln.de/fhir/StructureDefinition/Extension/nNGM/pkvTarifform",
                        "valueCodeableConcept": {
                            "coding": [
                                {
                                    "system": "http://uk-koeln.de/fhir/CodeSystem/nngm/pkv-tarifform",
                                    "code": "standard"
                                }
                            ]
                        }
                    }
                ],
                "id": "55f4223c-3af6-4e2c-81e0-9daaf03c1e27"
            },
            "request": {
                "method": "PUT",
                "url": "Coverage/55f4223c-3af6-4e2c-81e0-9daaf03c1e27"
            }
        },
        {
            "resource": {
                "resourceType": "EpisodeOfCare",
                "meta": {
                    "profile": [
                        "http://uk-koeln.de/fhir/StructureDefinition/EpisodeOfCare/nNGM"
                    ]
                },
                "patient": {
                    "reference": "https://vonk.nngm-qat.dev.healex.systems/administration/Patient/5014fdda-4a6e-47d1-abdd-4632c66c9bf2"
                },
                "status": "active",
                "identifier": [
                    {
                        "extension": [
                            {
                                "url": "http://hl7.org/fhir/StructureDefinition/data-absent-reason",
                                "valueCode": "not-asked"
                            }
                        ]
                    }
                ],
                "extension": [
                    {
                        "url": "http://uk-koeln.de/fhir/StructureDefinition/Extension/nNGM/Erstdiagnose",
                        "valueDateTime": "2021-01-01"
                    },
                    {
                        "url": "http://uk-koeln.de/fhir/StructureDefinition/Extension/nNGM/abrechnungsinformation/letzterKontakt",
                        "valueDateTime": "2021-01-02"
                    },
                    {
                        "url": "http://uk-koeln.de/fhir/StructureDefinition/Extension/nNGM/FollowUpStatus",
                        "valueCodeableConcept": {
                            "coding": [
                                {
                                    "system": "http://uk-koeln.de/fhir/CodeSystem/ngnm/FollowUpStatus",
                                    "code": "lebt"
                                }
                            ]
                        }
                    }
                ],
                "id": "b739333f-7ba2-423f-b007-c57f88beb190"
            },
            "request": {
                "method": "PUT",
                "url": "EpisodeOfCare/b739333f-7ba2-423f-b007-c57f88beb190"
            }
        },
        {
            "resource": {
                "resourceType": "Consent",
                "meta": {
                    "profile": [
                        "http://uk-koeln.de/fhir/StructureDefinition/Consent/nNGM"
                    ]
                },
                "status": "active",
                "scope": {
                    "coding": [
                        {
                            "system": "http://terminology.hl7.org/CodeSystem/consentscope",
                            "code": "patient-privacy"
                        }
                    ]
                },
                "category": [
                    {
                        "coding": [
                            {
                                "system": "http://loinc.org",
                                "code": "59284-0"
                            }
                        ]
                    }
                ],
                "patient": {
                    "reference": "https://vonk.nngm-qat.dev.healex.systems/administration/Patient/5014fdda-4a6e-47d1-abdd-4632c66c9bf2"
                },
                "provision": {
                    "type": "permit"
                },
                "policyRule": {
                    "coding": [
                        {
                            "system": "http://uk-koeln.de/fhir/CodeSystem/nngm/nngm-consent-policy",
                            "code": "1a"
                        }
                    ]
                },
                "dateTime": "2021-01-01",
                "id": "b8e0f86d-9bf5-4f01-a625-ac968aad26a4"
            },
            "request": {
                "method": "PUT",
                "url": "Consent/b8e0f86d-9bf5-4f01-a625-ac968aad26a4"
            }
        },
        {
            "resource": {
                "resourceType": "Consent",
                "meta": {
                    "profile": [
                        "http://uk-koeln.de/fhir/StructureDefinition/Consent/nNGM"
                    ]
                },
                "status": "active",
                "scope": {
                    "coding": [
                        {
                            "system": "http://terminology.hl7.org/CodeSystem/consentscope",
                            "code": "patient-privacy"
                        }
                    ]
                },
                "category": [
                    {
                        "coding": [
                            {
                                "system": "http://loinc.org",
                                "code": "59284-0"
                            }
                        ]
                    }
                ],
                "patient": {
                    "reference": "https://vonk.nngm-qat.dev.healex.systems/administration/Patient/5014fdda-4a6e-47d1-abdd-4632c66c9bf2"
                },
                "provision": {
                    "type": "permit"
                },
                "policyRule": {
                    "coding": [
                        {
                            "system": "http://uk-koeln.de/fhir/CodeSystem/nngm/nngm-consent-policy",
                            "code": "1b"
                        }
                    ]
                },
                "dateTime": "2021-01-02",
                "id": "c1e54b52-2ae3-40a7-a42d-dc8f6900c834"
            },
            "request": {
                "method": "PUT",
                "url": "Consent/c1e54b52-2ae3-40a7-a42d-dc8f6900c834"
            }
        }
    ],
    "id": "d356a888-6375-4a32-a87b-ffe1f3078221",
    "type": "transaction"
}