{
    "resourceType": "Bundle",
    "id": "f398e1f6-fe0b-4128-b304-5681e41ecb35",
    "type": "collection",
    "entry": [
        {
            "resource": {
                "resourceType": "Bundle",
                "entry": [
                    {
                        "resource": {
                            "resourceType": "Composition",
                            "id": "5b53713d-e655-4b27-bef2-747af3c27256",
                            "meta": {
                                "profile": [
                                    "http://uk-koeln.de/fhir/StructureDefinition/Composition/nNGM/Therapie-pseudonymisiert"
                                ]
                            },
                            "type": {
                                "coding": [
                                    {
                                        "system": "http://uk-koeln.de/fhir/CodeSystem/nngm/compositions",
                                        "code": "therapie"
                                    }
                                ]
                            },
                            "category": [
                                {
                                    "coding": [
                                        {
                                            "system": "http://uk-koeln.de/fhir/CodeSystem/nngm/composition-category",
                                            "code": "psn"
                                        }
                                    ]
                                }
                            ],
                            "title": "Therapie pseudonymisiert",
                            "status": "final",
                            "subject": {
                                "reference": "http://localhost:4080/administration/5014fdda-4a6e-47d1-abdd-4632c66c9bf2",
                                "identifier": {
                                    "system": "http://uk-koeln.de/fhir/NamingSystem/nNGM/patient-identifier",
                                    "value": ""
                                }
                            },
                            "date": "2021-02-12T13:07:45+01:00",
                            "author": [
                                {
                                    "reference": "https://clinicalsite.org/person/38"
                                }
                            ],
                            "section": [
                                {
                                    "code": {
                                        "coding": [
                                            {
                                                "system": "http://uk-koeln.de/fhir/CodeSystem/nngm/sections",
                                                "code": "operation"
                                            }
                                        ]
                                    },
                                    "entry": [
                                        {
                                            "reference": "http://localhost:4080/administration/Procedure/09c6197d-7444-40fb-92f4-d9326ff814c9"
                                        },
                                        {
                                            "display": "operation",
                                            "identifier": {
                                                "system": "http://uk-koeln.de/NamingSystem/nNGM/formularId",
                                                "value": "1"
                                            }
                                        }
                                    ]
                                },
                                {
                                    "code": {
                                        "coding": [
                                            {
                                                "system": "http://uk-koeln.de/fhir/CodeSystem/nngm/sections",
                                                "code": "systemischeTherapie"
                                            }
                                        ]
                                    },
                                    "entry": [
                                        {
                                            "reference": "http://localhost:4080/administration/MedicationAdministration/817744e8-5f22-421d-894b-99f61664fceb"
                                        },
                                        {
                                            "reference": "http://localhost:4080/administration/Observation/badc9580-c4d6-4ef6-bd78-9615597ecf73"
                                        },
                                        {
                                            "reference": "http://localhost:4080/administration/Observation/b7314bae-4364-4534-83cb-7d1b26d9e793"
                                        },
                                        {
                                            "display": "systemischeTherapie",
                                            "identifier": {
                                                "system": "http://uk-koeln.de/NamingSystem/nNGM/formularId",
                                                "value": "1"
                                            }
                                        }
                                    ]
                                },
                                {
                                    "code": {
                                        "coding": [
                                            {
                                                "system": "http://uk-koeln.de/fhir/CodeSystem/nngm/sections",
                                                "code": "strahlentherapie"
                                            }
                                        ]
                                    },
                                    "entry": [
                                        {
                                            "reference": "http://localhost:4080/administration/Procedure/3b60a818-fb9c-4be3-a170-b9a85855d520"
                                        },
                                        {
                                            "reference": "http://localhost:4080/administration/EpisodeOfCare/0e5a2ef9-ccd6-4ec0-83e2-98801b21a1f1"
                                        },
                                        {
                                            "display": "strahlentherapie",
                                            "identifier": {
                                                "system": "http://uk-koeln.de/NamingSystem/nNGM/formularId",
                                                "value": "1"
                                            }
                                        }
                                    ]
                                },
                                {
                                    "code": {
                                        "coding": [
                                            {
                                                "system": "http://uk-koeln.de/fhir/CodeSystem/nngm/sections",
                                                "code": "sonstigeTherapie"
                                            }
                                        ]
                                    },
                                    "entry": [
                                        {
                                            "reference": "http://localhost:4080/administration/Procedure/d7d1d14a-2a0d-4a94-ab80-aa28e2eed622"
                                        },
                                        {
                                            "display": "sonstigeTherapie",
                                            "identifier": {
                                                "system": "http://uk-koeln.de/NamingSystem/nNGM/formularId",
                                                "value": "1"
                                            }
                                        }
                                    ]
                                },
                                {
                                    "code": {
                                        "coding": [
                                            {
                                                "system": "http://uk-koeln.de/fhir/CodeSystem/nngm/sections",
                                                "code": "operation"
                                            }
                                        ]
                                    },
                                    "entry": [
                                        {
                                            "reference": "http://localhost:4080/administration/Procedure/5eb13f6f-66fc-421e-958c-71232b91875b"
                                        },
                                        {
                                            "display": "operation",
                                            "identifier": {
                                                "system": "http://uk-koeln.de/NamingSystem/nNGM/formularId",
                                                "value": "2"
                                            }
                                        }
                                    ]
                                },
                                {
                                    "code": {
                                        "coding": [
                                            {
                                                "system": "http://uk-koeln.de/fhir/CodeSystem/nngm/sections",
                                                "code": "systemischeTherapie"
                                            }
                                        ]
                                    },
                                    "entry": [
                                        {
                                            "reference": "http://localhost:4080/administration/MedicationAdministration/9e1846cc-dd9b-4865-93f4-4c35b20e743f"
                                        },
                                        {
                                            "reference": "http://localhost:4080/administration/Observation/683bc6d9-7835-4921-93cb-3390d8596c34"
                                        },
                                        {
                                            "reference": "http://localhost:4080/administration/Observation/39bc0ac2-e7e3-4b74-8a70-34fdda149be8"
                                        },
                                        {
                                            "display": "systemischeTherapie",
                                            "identifier": {
                                                "system": "http://uk-koeln.de/NamingSystem/nNGM/formularId",
                                                "value": "2"
                                            }
                                        }
                                    ]
                                },
                                {
                                    "code": {
                                        "coding": [
                                            {
                                                "system": "http://uk-koeln.de/fhir/CodeSystem/nngm/sections",
                                                "code": "strahlentherapie"
                                            }
                                        ]
                                    },
                                    "entry": [
                                        {
                                            "reference": "http://localhost:4080/administration/Procedure/f33f0eb9-9c35-47a5-9915-d27ec54b3da5"
                                        },
                                        {
                                            "display": "strahlentherapie",
                                            "identifier": {
                                                "system": "http://uk-koeln.de/NamingSystem/nNGM/formularId",
                                                "value": "2"
                                            }
                                        }
                                    ]
                                },
                                {
                                    "code": {
                                        "coding": [
                                            {
                                                "system": "http://uk-koeln.de/fhir/CodeSystem/nngm/sections",
                                                "code": "sonstigeTherapie"
                                            }
                                        ]
                                    },
                                    "entry": [
                                        {
                                            "reference": "http://localhost:4080/administration/Procedure/9705d75b-ec62-47d2-8951-4bfe65a3149b"
                                        },
                                        {
                                            "display": "sonstigeTherapie",
                                            "identifier": {
                                                "system": "http://uk-koeln.de/NamingSystem/nNGM/formularId",
                                                "value": "2"
                                            }
                                        }
                                    ]
                                }
                            ]
                        },
                        "request": {
                            "method": "PUT",
                            "url": "Composition/5b53713d-e655-4b27-bef2-747af3c27256"
                        }
                    },
                    {
                        "resource": {
                            "resourceType": "Procedure",
                            "meta": {
                                "profile": [
                                    "http://uk-koeln.de/fhir/StructureDefinition/Procedure/nNGM/OP"
                                ]
                            },
                            "status": "unknown",
                            "subject": {
                                "reference": "http://localhost:4080/administration/Patient/5014fdda-4a6e-47d1-abdd-4632c66c9bf2"
                            },
                            "code": {
                                "coding": [
                                    {
                                        "system": "http://ncit.nci.nih.gov",
                                        "code": "C15329"
                                    }
                                ],
                                "extension": [
                                    {
                                        "url": "http://uk-koeln.de/fhir/StructureDefinition/Extension/nNGM/art-des-eingriffs",
                                        "valueCodeableConcept": {
                                            "coding": [
                                                {
                                                    "system": "http://uk-koeln.de/fhir/CodeSystem/ngnm/OperationArtDesEingriffs",
                                                    "code": "Bilobektomie"
                                                }
                                            ]
                                        }
                                    },
                                    {
                                        "url": "http://uk-koeln.de/fhir/StructureDefinition/Extension/nNGM/art-des-eingriffs",
                                        "valueCodeableConcept": {
                                            "coding": [
                                                {
                                                    "system": "http://uk-koeln.de/fhir/CodeSystem/ngnm/OperationArtDesEingriffs",
                                                    "code": "Pneumektomie"
                                                }
                                            ]
                                        }
                                    },
                                    {
                                        "url": "http://uk-koeln.de/fhir/StructureDefinition/Extension/nNGM/art-des-eingriffs",
                                        "valueCodeableConcept": {
                                            "coding": [
                                                {
                                                    "system": "http://uk-koeln.de/fhir/CodeSystem/ngnm/OperationArtDesEingriffs",
                                                    "code": "Lobektomie"
                                                }
                                            ]
                                        }
                                    },
                                    {
                                        "url": "http://uk-koeln.de/fhir/StructureDefinition/Extension/nNGM/art-des-eingriffs",
                                        "valueCodeableConcept": {
                                            "coding": [
                                                {
                                                    "system": "http://uk-koeln.de/fhir/CodeSystem/ngnm/OperationArtDesEingriffs",
                                                    "code": "Thorakoskopie mit Pleurodese"
                                                }
                                            ]
                                        }
                                    },
                                    {
                                        "url": "http://uk-koeln.de/fhir/StructureDefinition/Extension/nNGM/art-des-eingriffs",
                                        "valueCodeableConcept": {
                                            "coding": [
                                                {
                                                    "system": "http://uk-koeln.de/fhir/CodeSystem/ngnm/OperationArtDesEingriffs",
                                                    "code": "Keilresektion/Lasernukleation"
                                                }
                                            ]
                                        }
                                    },
                                    {
                                        "url": "http://uk-koeln.de/fhir/StructureDefinition/Extension/nNGM/art-des-eingriffs",
                                        "valueCodeableConcept": {
                                            "coding": [
                                                {
                                                    "system": "http://uk-koeln.de/fhir/CodeSystem/ngnm/OperationArtDesEingriffs",
                                                    "code": "Segmentresektion"
                                                }
                                            ]
                                        }
                                    },
                                    {
                                        "url": "http://uk-koeln.de/fhir/StructureDefinition/Extension/nNGM/art-des-eingriffs",
                                        "valueCodeableConcept": {
                                            "coding": [
                                                {
                                                    "system": "http://uk-koeln.de/fhir/CodeSystem/ngnm/OperationArtDesEingriffs",
                                                    "code": "Metastasenresektion"
                                                }
                                            ]
                                        }
                                    },
                                    {
                                        "url": "http://uk-koeln.de/fhir/StructureDefinition/Extension/nNGM/art-des-eingriffs",
                                        "valueCodeableConcept": {
                                            "coding": [
                                                {
                                                    "system": "http://uk-koeln.de/fhir/CodeSystem/ngnm/OperationArtDesEingriffs",
                                                    "code": "Pleurektomie (Dekortikation)"
                                                }
                                            ]
                                        }
                                    },
                                    {
                                        "url": "http://uk-koeln.de/fhir/StructureDefinition/Extension/nNGM/art-des-eingriffs",
                                        "valueCodeableConcept": {
                                            "coding": [
                                                {
                                                    "system": "http://terminology.hl7.org/CodeSystem/data-absent-reason",
                                                    "code": "unknown"
                                                }
                                            ]
                                        }
                                    },
                                    {
                                        "url": "http://uk-koeln.de/fhir/StructureDefinition/Extension/nNGM/resektion",
                                        "extension": [
                                            {
                                                "url": "resektionsart",
                                                "valueCodeableConcept": {
                                                    "coding": [
                                                        {
                                                            "system": "http://uk-koeln.de/fhir/CodeSystem/nngm/OperationArtResektion",
                                                            "code": "Resektion des Primarius"
                                                        }
                                                    ]
                                                }
                                            },
                                            {
                                                "url": "resektionsart",
                                                "valueCodeableConcept": {
                                                    "coding": [
                                                        {
                                                            "system": "http://uk-koeln.de/fhir/CodeSystem/nngm/OperationArtResektion",
                                                            "code": "Resektion von Metastasen"
                                                        }
                                                    ]
                                                }
                                            },
                                            {
                                                "url": "resektionsart",
                                                "valueCodeableConcept": {
                                                    "coding": [
                                                        {
                                                            "system": "http://uk-koeln.de/fhir/CodeSystem/nngm/OperationArtResektion",
                                                            "code": "Lympfknotenresektion (anders als Lymphadenektomie)"
                                                        }
                                                    ]
                                                }
                                            },
                                            {
                                                "url": "resektionsart",
                                                "valueCodeableConcept": {
                                                    "coding": [
                                                        {
                                                            "system": "http://uk-koeln.de/fhir/CodeSystem/nngm/OperationArtResektion",
                                                            "code": "Resektion eines lokoregionären Rezidivs"
                                                        }
                                                    ]
                                                }
                                            },
                                            {
                                                "url": "resektionsart",
                                                "valueCodeableConcept": {
                                                    "coding": [
                                                        {
                                                            "system": "http://uk-koeln.de/fhir/CodeSystem/nngm/OperationArtResektion",
                                                            "code": "Nachresektion"
                                                        }
                                                    ]
                                                }
                                            },
                                            {
                                                "url": "resektionsart",
                                                "valueCodeableConcept": {
                                                    "coding": [
                                                        {
                                                            "system": "http://uk-koeln.de/fhir/CodeSystem/nngm/OperationArtResektion",
                                                            "code": "Revisions-OP wg. Komplikationen"
                                                        }
                                                    ]
                                                }
                                            },
                                            {
                                                "url": "resektionsart",
                                                "valueCodeableConcept": {
                                                    "coding": [
                                                        {
                                                            "system": "http://terminology.hl7.org/CodeSystem/data-absent-reason",
                                                            "code": "unknown"
                                                        }
                                                    ]
                                                }
                                            },
                                            {
                                                "url": "resektionsstatus",
                                                "valueCodeableConcept": {
                                                    "coding": [
                                                        {
                                                            "system": "http://loinc.org",
                                                            "code": "LA26544-9"
                                                        }
                                                    ]
                                                }
                                            }
                                        ]
                                    }
                                ]
                            },
                            "performer": [
                                {
                                    "actor": {
                                        "display": "Universitäre Einrichtung"
                                    }
                                }
                            ],
                            "performedDateTime": "2020-02-01",
                            "id": "09c6197d-7444-40fb-92f4-d9326ff814c9",
                            "reasonCode": [
                                {
                                    "coding": [
                                        {
                                            "system": "http://uk-koeln.de/fhir/CodeSystem/nngm/intention-therapie",
                                            "code": "Palliativ"
                                        }
                                    ]
                                }
                            ],
                            "extension": [
                                {
                                    "url": "http://uk-koeln.de/fhir/StructureDefinition/Extension/nNGM/lymphadenektomie",
                                    "valueBoolean": false
                                }
                            ],
                            "bodySite": [
                                {
                                    "coding": [
                                        {
                                            "system": "http://uk-koeln.de/fhir/CodeSystem/nNGM/OperationLokalisation",
                                            "code": "Lunge"
                                        },
                                        {
                                            "system": "http://uk-koeln.de/fhir/CodeSystem/nNGM/OperationLokalisation",
                                            "code": "Leber"
                                        },
                                        {
                                            "system": "http://uk-koeln.de/fhir/CodeSystem/nNGM/OperationLokalisation",
                                            "code": "Gehirn"
                                        },
                                        {
                                            "system": "http://uk-koeln.de/fhir/CodeSystem/nNGM/OperationLokalisation",
                                            "code": "Nebenniere"
                                        },
                                        {
                                            "system": "http://uk-koeln.de/fhir/CodeSystem/nNGM/OperationLokalisation",
                                            "code": "other"
                                        },
                                        {
                                            "system": "http://terminology.hl7.org/CodeSystem/data-absent-reason",
                                            "code": "unknown"
                                        },
                                        {
                                            "system": "http://ncit.nci.nih.gov",
                                            "code": "C17649"
                                        }
                                    ],
                                    "text": "Other Lokalisation"
                                },
                                {
                                    "extension": [
                                        {
                                            "url": "http://uk-koeln.de/fhir/StructureDefinition/Extension/nNGM/seitenlokalisation",
                                            "valueCodeableConcept": {
                                                "coding": [
                                                    {
                                                        "system": "http://uk-koeln.de/fhir/CodeSystem/nngm/OperationSeitenlokalisation",
                                                        "code": "Beidseitig"
                                                    }
                                                ]
                                            }
                                        }
                                    ]
                                }
                            ],
                            "note": [
                                {
                                    "text": "Bermerkungen in Sonstiges"
                                }
                            ]
                        },
                        "request": {
                            "method": "PUT",
                            "url": "Procedure/09c6197d-7444-40fb-92f4-d9326ff814c9"
                        }
                    },
                    {
                        "resource": {
                            "resourceType": "MedicationAdministration",
                            "meta": {
                                "profile": [
                                    "http://uk-koeln.de/fhir/StructureDefinition/Procedure/nNGM/MedicationAdministration"
                                ]
                            },
                            "subject": {
                                "reference": "http://localhost:4080/administration/Patient/5014fdda-4a6e-47d1-abdd-4632c66c9bf2"
                            },
                            "category": {
                                "coding": [
                                    {
                                        "system": "http://ncit.nci.nih.gov",
                                        "code": "C25446"
                                    }
                                ]
                            },
                            "context": {
                                "identifier": {
                                    "system": "http://www.acme.com/identifiers/patient",
                                    "value": "2301239"
                                }
                            },
                            "statusReason": [
                                {
                                    "coding": [
                                        {
                                            "system": "https://www.uk-koeln.de/nngm/CodeSystem/ST_Ende_Grund",
                                            "code": "Reguläres Ende"
                                        },
                                        {
                                            "system": "https://www.uk-koeln.de/nngm/CodeSystem/ST_Ende_Grund",
                                            "code": "Abbruch wegen Nebenwirkungen"
                                        },
                                        {
                                            "system": "https://www.uk-koeln.de/nngm/CodeSystem/ST_Ende_Grund",
                                            "code": "Pause wegen Nebenwirkungen"
                                        },
                                        {
                                            "system": "https://www.uk-koeln.de/nngm/CodeSystem/ST_Ende_Grund",
                                            "code": "Ablehnung durch den Patienten"
                                        },
                                        {
                                            "system": "https://www.uk-koeln.de/nngm/CodeSystem/ST_Ende_Grund",
                                            "code": "Vielversprechendere Therapieoption"
                                        },
                                        {
                                            "system": "https://www.uk-koeln.de/nngm/CodeSystem/ST_Ende_Grund",
                                            "code": "Sonstiges"
                                        },
                                        {
                                            "system": "http://terminology.hl7.org/CodeSystem/data-absent-reason",
                                            "code": "not-applicable"
                                        }
                                    ],
                                    "extension": [
                                        {
                                            "url": "http://uk-koeln.de/fhir/StructureDefinition/Extension/nNGM/grundAenderung",
                                            "valueCodeableConcept": {
                                                "coding": [
                                                    {
                                                        "system": "http://uk-koeln.de/fhir/CodeSystem/nngm/GrundAenderung",
                                                        "code": "Nebenwirkungen/Unverträglichkeit"
                                                    }
                                                ]
                                            }
                                        }
                                    ]
                                }
                            ],
                            "status": "unknown",
                            "supportingInformation": [
                                {
                                    "display": "Therapieinformation Systemische Therapie 1"
                                },
                                {
                                    "extension": [
                                        {
                                            "url": "http://uk-koeln.de/fhir/StructureDefinition/Extension/nNGM/therapieinformationen",
                                            "extension": [
                                                {
                                                    "url": "hilfreich",
                                                    "valueBoolean": false
                                                }
                                            ]
                                        }
                                    ]
                                },
                                {
                                    "extension": [
                                        {
                                            "url": "http://uk-koeln.de/fhir/StructureDefinition/Extension/nNGM/therapieinformationen",
                                            "extension": [
                                                {
                                                    "url": "umgesetzt",
                                                    "valueBoolean": true
                                                }
                                            ]
                                        }
                                    ]
                                }
                            ],
                            "performer": [
                                {
                                    "actor": {
                                        "display": "Andere"
                                    }
                                }
                            ],
                            "reasonCode": [
                                {
                                    "coding": [
                                        {
                                            "system": "http://uk-koeln.de/fhir/CodeSystem/nngm/intention-therapie",
                                            "code": "Adjuvant",
                                            "display": "Adjuvant"
                                        }
                                    ]
                                }
                            ],
                            "extension": [
                                {
                                    "url": "http://uk-koeln.de/fhir/StructureDefinition/Extension/cancer-base/studientherapie",
                                    "extension": [
                                        {
                                            "url": "teilnahme",
                                            "valueBoolean": true
                                        },
                                        {
                                            "url": "studie",
                                            "valueReference": {
                                                "reference": "http://localhost:4080/administration/1879",
                                                "display": "1879"
                                            }
                                        },
                                        {
                                            "url": "medikament",
                                            "valueCodeableConcept": {
                                                "coding": [
                                                    {
                                                        "system": "http://uk-koeln.de/fhir/CodeSystem/nNGM/SystemischeTherapieMedikation",
                                                        "code": "Bevacizumab/Pembrolizumab"
                                                    }
                                                ]
                                            }
                                        }
                                    ]
                                },
                                {
                                    "url": "http://uk-koeln.de/fhir/StructureDefinition/Extension/nNGM/OffLabelTherapie",
                                    "valueBoolean": false
                                },
                                {
                                    "url": "http://uk-koeln.de/fhir/StructureDefinition/Extension/nNGM/DatumAenderung",
                                    "valueDateTime": "2020-03-02"
                                },
                                {
                                    "url": "http://uk-koeln.de/fhir/StructureDefinition/Extension/erhaltungstherapie",
                                    "extension": [
                                        {
                                            "url": "option",
                                            "valueBoolean": true
                                        }
                                    ]
                                }
                            ],
                            "effectivePeriod": {
                                "start": "2018-02-01",
                                "end": "2018-02-02"
                            },
                            "medicationCodeableConcept": {
                                "coding": [
                                    {
                                        "system": "http://uk-koeln.de/fhir/CodeSystem/nNGM/SystemischeTherapieMedikation",
                                        "code": "Carboplatin/Paclitaxel/Bevacizumab"
                                    }
                                ],
                                "extension": [
                                    {
                                        "url": "http://uk-koeln.de/fhir/StructureDefinition/Extension/nNGM/NeuesTherapieschema",
                                        "valueCodeableConcept": {
                                            "coding": [
                                                {
                                                    "system": "http://uk-koeln.de/fhir/CodeSystem/nNGM/SystemischeTherapieMedikation",
                                                    "code": "Avelumab"
                                                }
                                            ]
                                        }
                                    }
                                ]
                            },
                            "dosage": {
                                "rateQuantity": {
                                    "system": "http://unitsofmeasure.org",
                                    "code": "1",
                                    "value": 87
                                }
                            },
                            "id": "817744e8-5f22-421d-894b-99f61664fceb",
                            "note": [
                                {
                                    "text": "Bemerkungen Systemische Therapie 1"
                                }
                            ]
                        },
                        "request": {
                            "method": "PUT",
                            "url": "MedicationAdministration/817744e8-5f22-421d-894b-99f61664fceb"
                        }
                    },
                    {
                        "resource": {
                            "resourceType": "Observation",
                            "meta": {
                                "profile": [
                                    "http://uk-koeln.de/fhir/StructureDefinition/Observation/nNGM/ecog"
                                ]
                            },
                            "status": "final",
                            "category": [
                                {
                                    "coding": [
                                        {
                                            "system": "http://terminology.hl7.org/CodeSystem/observation-category",
                                            "code": "survey"
                                        }
                                    ]
                                }
                            ],
                            "code": {
                                "coding": [
                                    {
                                        "system": "http://loinc.org",
                                        "code": "89247-1"
                                    }
                                ]
                            },
                            "subject": {
                                "reference": "http://localhost:4080/administration/Patient/5014fdda-4a6e-47d1-abdd-4632c66c9bf2"
                            },
                            "valueCodeableConcept": {
                                "coding": [
                                    {
                                        "system": "urn:oid:1.2.276.0.76.3.1.131.1.5.153",
                                        "code": "1",
                                        "display": "ECOG 1: (Einschränkung bei körperlicher Anstrengung, aber gehfähig; leichte körperliche Arbeit bzw. Arbeit im Sitzen)"
                                    }
                                ]
                            },
                            "id": "badc9580-c4d6-4ef6-bd78-9615597ecf73"
                        },
                        "request": {
                            "method": "PUT",
                            "url": "Observation/badc9580-c4d6-4ef6-bd78-9615597ecf73"
                        }
                    },
                    {
                        "resource": {
                            "resourceType": "Observation",
                            "meta": {
                                "profile": [
                                    "http://uk-koeln.de/fhir/StructureDefinition/Observation/nNGM/best-response"
                                ]
                            },
                            "status": "unknown",
                            "category": [
                                {
                                    "coding": [
                                        {
                                            "system": "http://terminology.hl7.org/CodeSystem/observation-category",
                                            "code": "therapy"
                                        }
                                    ]
                                }
                            ],
                            "code": {
                                "coding": [
                                    {
                                        "system": "http://ncit.nci.nih.gov",
                                        "code": "C94536"
                                    }
                                ]
                            },
                            "subject": {
                                "reference": "http://localhost:4080/administration/Patient/5014fdda-4a6e-47d1-abdd-4632c66c9bf2"
                            },
                            "partOf": [
                                {
                                    "reference": "http://localhost:4080/administration/MedicationAdministration/817744e8-5f22-421d-894b-99f61664fceb"
                                }
                            ],
                            "valueCodeableConcept": {
                                "coding": [
                                    {
                                        "system": "http://uk-koeln.de/fhir/CodeSystem/nngm/SystemischeTherapieDivergentesGeschehen",
                                        "code": "Divergentes Geschehen (nach RECIST nicht möglich)",
                                        "display": "Divergentes Geschehen (nach RECIST nicht möglich)"
                                    }
                                ]
                            },
                            "method": {
                                "coding": [
                                    {
                                        "system": "http://uk-koeln.de/fhir/CodeSystem/nngm/SystemischeTherapieBeurteilungNach",
                                        "code": "Behandelnder Arzt"
                                    }
                                ]
                            },
                            "id": "b7314bae-4364-4534-83cb-7d1b26d9e793"
                        },
                        "request": {
                            "method": "PUT",
                            "url": "Observation/b7314bae-4364-4534-83cb-7d1b26d9e793"
                        }
                    },
                    {
                        "resource": {
                            "resourceType": "Procedure",
                            "meta": {
                                "profile": [
                                    "http://uk-koeln.de/fhir/StructureDefinition/Procedure/nNGM/Strahlentherapie"
                                ]
                            },
                            "category": {
                                "coding": [
                                    {
                                        "system": "http://uk-koeln.de/fhir/CodeSystem/cancer-base/procedure-category",
                                        "code": "radiotherapy"
                                    }
                                ]
                            },
                            "code": {
                                "coding": [
                                    {
                                        "system": "http://ncit.nci.nih.gov",
                                        "code": "C15313"
                                    }
                                ],
                                "extension": [
                                    {
                                        "url": "http://uk-koeln.de/fhir/StructureDefinition/Extension/nNGM/art-der-bestrahlung",
                                        "valueCodeableConcept": {
                                            "coding": [
                                                {
                                                    "system": "http://uk-koeln.de/fhir/CodeSystem/nNGM/StrahlentherapieArtDerBestrahlung",
                                                    "code": "Sonstige stereotaktische Bestrahlung",
                                                    "display": "Sonstige stereotaktische Bestrahlung"
                                                }
                                            ]
                                        }
                                    }
                                ]
                            },
                            "subject": {
                                "reference": "http://localhost:4080/administration/Patient/5014fdda-4a6e-47d1-abdd-4632c66c9bf2"
                            },
                            "performer": [
                                {
                                    "actor": {
                                        "display": "anderes Krankenhaus - Chirurgie"
                                    }
                                }
                            ],
                            "performedPeriod": {
                                "start": "2020-03-20",
                                "end": "2020-02-14"
                            },
                            "bodySite": [
                                {
                                    "coding": [
                                        {
                                            "system": "http://uk-koeln.de/fhir/CodeSystem/nngm/Strahlentherapie_Bestrahlungsziel",
                                            "code": "Primärtumorregion",
                                            "display": "Primärtumorregion"
                                        }
                                    ]
                                },
                                {
                                    "coding": [
                                        {
                                            "system": "http://uk-koeln.de/fhir/CodeSystem/nngm/Strahlentherapie_Bestrahlungsziel",
                                            "code": "Regionäre Lymphabflusswege",
                                            "display": "Regionäre Lymphabflusswege"
                                        }
                                    ]
                                },
                                {
                                    "coding": [
                                        {
                                            "system": "http://uk-koeln.de/fhir/CodeSystem/nngm/Strahlentherapie_Bestrahlungsziel",
                                            "code": "Brustwand rechts",
                                            "display": "Brustwand rechts"
                                        }
                                    ]
                                },
                                {
                                    "coding": [
                                        {
                                            "system": "http://uk-koeln.de/fhir/CodeSystem/nngm/Strahlentherapie_Bestrahlungsziel",
                                            "code": "Brustwand links",
                                            "display": "Brustwand links"
                                        }
                                    ]
                                },
                                {
                                    "coding": [
                                        {
                                            "system": "http://uk-koeln.de/fhir/CodeSystem/nngm/Strahlentherapie_Bestrahlungsziel",
                                            "code": "Knochen",
                                            "display": "Knochen"
                                        }
                                    ]
                                },
                                {
                                    "coding": [
                                        {
                                            "system": "http://uk-koeln.de/fhir/CodeSystem/nngm/Strahlentherapie_Bestrahlungsziel",
                                            "code": "Gehirn",
                                            "display": "Gehirn"
                                        }
                                    ]
                                },
                                {
                                    "coding": [
                                        {
                                            "system": "http://uk-koeln.de/fhir/CodeSystem/nngm/Strahlentherapie_Bestrahlungsziel",
                                            "code": "Mediastinum",
                                            "display": "Mediastinum"
                                        }
                                    ]
                                },
                                {
                                    "coding": [
                                        {
                                            "system": "http://terminology.hl7.org/CodeSystem/data-absent-reason",
                                            "code": "not-applicable",
                                            "display": "Not Applicable"
                                        }
                                    ]
                                }
                            ],
                            "reasonCode": [
                                {
                                    "coding": [
                                        {
                                            "system": "http://uk-koeln.de/fhir/CodeSystem/nngm/intention-therapie",
                                            "code": "Prophylaktisch",
                                            "display": "Prophylaktisch"
                                        }
                                    ]
                                }
                            ],
                            "extension": [
                                {
                                    "url": "http://uk-koeln.de/fhir/StructureDefinition/Extension/nNGM/strahlentherapie-dosis",
                                    "extension": [
                                        {
                                            "url": "einzeldosis",
                                            "valueQuantity": {
                                                "value": 1.9,
                                                "system": "http://unitsofmeasure.org",
                                                "code": "Gy"
                                            }
                                        },
                                        {
                                            "url": "gesamtdosis",
                                            "valueQuantity": {
                                                "value": 20.2,
                                                "system": "http://unitsofmeasure.org",
                                                "code": "Gy"
                                            }
                                        },
                                        {
                                            "url": "boostdosisInGesamtdosis",
                                            "valueBoolean": true
                                        },
                                        {
                                            "url": "boostdosis",
                                            "valueQuantity": {
                                                "value": 2.9,
                                                "system": "http://unitsofmeasure.org",
                                                "code": "Gy"
                                            }
                                        }
                                    ]
                                }
                            ],
                            "id": "3b60a818-fb9c-4be3-a170-b9a85855d520",
                            "statusReason": {
                                "coding": [
                                    {
                                        "system": "https://www.uk-koeln.de/nngm/CodeSystem/ST_Ende_Grund",
                                        "code": "Reguläres Ende"
                                    },
                                    {
                                        "system": "https://www.uk-koeln.de/nngm/CodeSystem/ST_Ende_Grund",
                                        "code": "Abbruch wegen Nebenwirkungen"
                                    },
                                    {
                                        "system": "https://www.uk-koeln.de/nngm/CodeSystem/ST_Ende_Grund",
                                        "code": "Pause wegen Nebenwirkungen"
                                    },
                                    {
                                        "system": "https://www.uk-koeln.de/nngm/CodeSystem/ST_Ende_Grund",
                                        "code": "Abbruch wegen Progress"
                                    },
                                    {
                                        "system": "https://www.uk-koeln.de/nngm/CodeSystem/ST_Ende_Grund",
                                        "code": "Ablehnung durch den Patienten"
                                    },
                                    {
                                        "system": "https://www.uk-koeln.de/nngm/CodeSystem/ST_Ende_Grund",
                                        "code": "Patient verstorben"
                                    },
                                    {
                                        "system": "https://www.uk-koeln.de/nngm/CodeSystem/ST_Ende_Grund",
                                        "code": "Sonstiges"
                                    },
                                    {
                                        "system": "http://terminology.hl7.org/CodeSystem/data-absent-reason",
                                        "code": "not-applicable"
                                    }
                                ]
                            },
                            "status": "unknown",
                            "note": [
                                {
                                    "text": "Bemerkungen in Strahlentherapie 1"
                                }
                            ]
                        },
                        "request": {
                            "method": "PUT",
                            "url": "Procedure/3b60a818-fb9c-4be3-a170-b9a85855d520"
                        }
                    },
                    {
                        "resource": {
                            "resourceType": "EpisodeOfCare",
                            "meta": {
                                "profile": [
                                    "http://uk-koeln.de/fhir/StructureDefinition/EpisodeOfCare/nNGM"
                                ]
                            },
                            "identifier": [
                                {
                                    "system": "http://uk-koeln.de/NamingSystem/nNGM/fallnummer",
                                    "_value": {
                                        "extension": [
                                            {
                                                "url": "http://hl7.org/fhir/StructureDefinition/data-absent-reason",
                                                "valueCode": "not-asked"
                                            }
                                        ]
                                    }
                                }
                            ],
                            "status": "active",
                            "patient": {
                                "reference": "http://localhost:4080/administration/Patient/5014fdda-4a6e-47d1-abdd-4632c66c9bf2"
                            },
                            "extension": [
                                {
                                    "url": "http://uk-koeln.de/fhir/StructureDefinition/Extension/nNGM/datumProgress",
                                    "valueDate": "2020-10-01"
                                }
                            ],
                            "id": "0e5a2ef9-ccd6-4ec0-83e2-98801b21a1f1"
                        },
                        "request": {
                            "method": "PUT",
                            "url": "EpisodeOfCare/0e5a2ef9-ccd6-4ec0-83e2-98801b21a1f1"
                        }
                    },
                    {
                        "resource": {
                            "resourceType": "Procedure",
                            "meta": {
                                "profile": [
                                    "http://uk-koeln.de/fhir/StructureDefinition/Procedure/nNGM/SonstigeTherapie"
                                ]
                            },
                            "status": "unknown",
                            "subject": {
                                "reference": "http://localhost:4080/administration/Patient/5014fdda-4a6e-47d1-abdd-4632c66c9bf2"
                            },
                            "code": {
                                "coding": [
                                    {
                                        "system": "http://ncit.nci.nih.gov",
                                        "code": "C15645"
                                    }
                                ],
                                "extension": [
                                    {
                                        "url": "http://uk-koeln.de/fhir/StructureDefinition/Extension/nNGM/methode-sonstige-therapie",
                                        "extension": [
                                            {
                                                "url": "methode",
                                                "valueCodeableConcept": {
                                                    "coding": [
                                                        {
                                                            "system": "http://uk-koeln.de/fhir/CodeSystem/nngm/SonstigeTherapieMethode",
                                                            "code": "Radiofrequenzablation"
                                                        }
                                                    ]
                                                }
                                            }
                                        ]
                                    }
                                ]
                            },
                            "category": {
                                "coding": [
                                    {
                                        "system": "http://uk-koeln.de/fhir/CodeSystem/nngm/SonstigeTherapieArtDerTherapie",
                                        "code": "lokales Verfahren"
                                    }
                                ]
                            },
                            "performedPeriod": {
                                "start": "2020-07-19",
                                "end": "2020-08-18"
                            },
                            "performer": [
                                {
                                    "actor": {
                                        "display": "anderes Krankenhaus - Lungenkrebszentrum"
                                    }
                                }
                            ],
                            "bodySite": [
                                {
                                    "coding": [
                                        {
                                            "system": "http://ncit.nci.nih.gov",
                                            "code": "C17649",
                                            "display": "Other"
                                        }
                                    ]
                                },
                                {
                                    "text": "Other Lokalisation"
                                }
                            ],
                            "id": "d7d1d14a-2a0d-4a94-ab80-aa28e2eed622",
                            "extension": [
                                {
                                    "url": "http://uk-koeln.de/fhir/StructureDefinition/Extension/nNGM/maintenance",
                                    "valueBoolean": true
                                }
                            ],
                            "note": [
                                {
                                    "text": "Bemerkungen Sonstige Therapie"
                                }
                            ]
                        },
                        "request": {
                            "method": "PUT",
                            "url": "Procedure/d7d1d14a-2a0d-4a94-ab80-aa28e2eed622"
                        }
                    },
                    {
                        "resource": {
                            "resourceType": "Procedure",
                            "meta": {
                                "profile": [
                                    "http://uk-koeln.de/fhir/StructureDefinition/Procedure/nNGM/OP"
                                ]
                            },
                            "status": "unknown",
                            "subject": {
                                "reference": "http://localhost:4080/administration/Patient/5014fdda-4a6e-47d1-abdd-4632c66c9bf2"
                            },
                            "code": {
                                "coding": [
                                    {
                                        "system": "http://ncit.nci.nih.gov",
                                        "code": "C15329"
                                    }
                                ],
                                "extension": [
                                    {
                                        "url": "http://uk-koeln.de/fhir/StructureDefinition/Extension/nNGM/art-des-eingriffs",
                                        "valueCodeableConcept": {
                                            "coding": [
                                                {
                                                    "system": "http://uk-koeln.de/fhir/CodeSystem/ngnm/OperationArtDesEingriffs",
                                                    "code": "Bilobektomie"
                                                }
                                            ]
                                        }
                                    },
                                    {
                                        "url": "http://uk-koeln.de/fhir/StructureDefinition/Extension/nNGM/art-des-eingriffs",
                                        "valueCodeableConcept": {
                                            "coding": [
                                                {
                                                    "system": "http://uk-koeln.de/fhir/CodeSystem/ngnm/OperationArtDesEingriffs",
                                                    "code": "Segmentresektion"
                                                }
                                            ]
                                        }
                                    },
                                    {
                                        "url": "http://uk-koeln.de/fhir/StructureDefinition/Extension/nNGM/art-des-eingriffs",
                                        "valueCodeableConcept": {
                                            "coding": [
                                                {
                                                    "system": "http://uk-koeln.de/fhir/CodeSystem/ngnm/OperationArtDesEingriffs",
                                                    "code": "Pleurektomie (Dekortikation)"
                                                }
                                            ]
                                        }
                                    },
                                    {
                                        "url": "http://uk-koeln.de/fhir/StructureDefinition/Extension/nNGM/resektion",
                                        "extension": [
                                            {
                                                "url": "resektionsart",
                                                "valueCodeableConcept": {
                                                    "coding": [
                                                        {
                                                            "system": "http://uk-koeln.de/fhir/CodeSystem/nngm/OperationArtResektion",
                                                            "code": "Resektion von Metastasen"
                                                        }
                                                    ]
                                                }
                                            },
                                            {
                                                "url": "resektionsart",
                                                "valueCodeableConcept": {
                                                    "coding": [
                                                        {
                                                            "system": "http://uk-koeln.de/fhir/CodeSystem/nngm/OperationArtResektion",
                                                            "code": "Lympfknotenresektion (anders als Lymphadenektomie)"
                                                        }
                                                    ]
                                                }
                                            },
                                            {
                                                "url": "resektionsart",
                                                "valueCodeableConcept": {
                                                    "coding": [
                                                        {
                                                            "system": "http://uk-koeln.de/fhir/CodeSystem/nngm/OperationArtResektion",
                                                            "code": "Resektion eines lokoregionären Rezidivs"
                                                        }
                                                    ]
                                                }
                                            },
                                            {
                                                "url": "resektionsart",
                                                "valueCodeableConcept": {
                                                    "coding": [
                                                        {
                                                            "system": "http://uk-koeln.de/fhir/CodeSystem/nngm/OperationArtResektion",
                                                            "code": "Nachresektion"
                                                        }
                                                    ]
                                                }
                                            },
                                            {
                                                "url": "resektionsstatus",
                                                "valueCodeableConcept": {
                                                    "coding": [
                                                        {
                                                            "system": "http://loinc.org",
                                                            "code": "LA26543-1"
                                                        }
                                                    ]
                                                }
                                            }
                                        ]
                                    }
                                ]
                            },
                            "performer": [
                                {
                                    "actor": {
                                        "display": "anderes Krankenhaus - Pneumologie"
                                    }
                                }
                            ],
                            "performedDateTime": "2021-10-03",
                            "id": "5eb13f6f-66fc-421e-958c-71232b91875b",
                            "reasonCode": [
                                {
                                    "coding": [
                                        {
                                            "system": "http://uk-koeln.de/fhir/CodeSystem/nngm/intention-therapie",
                                            "code": "Revision/Komplikation"
                                        }
                                    ]
                                }
                            ],
                            "extension": [
                                {
                                    "url": "http://uk-koeln.de/fhir/StructureDefinition/Extension/nNGM/lymphadenektomie",
                                    "valueBoolean": false
                                }
                            ],
                            "bodySite": [
                                {
                                    "coding": [
                                        {
                                            "system": "http://uk-koeln.de/fhir/CodeSystem/nNGM/OperationLokalisation",
                                            "code": "Leber"
                                        },
                                        {
                                            "system": "http://uk-koeln.de/fhir/CodeSystem/nNGM/OperationLokalisation",
                                            "code": "Gehirn"
                                        },
                                        {
                                            "system": "http://uk-koeln.de/fhir/CodeSystem/nNGM/OperationLokalisation",
                                            "code": "Nebenniere"
                                        }
                                    ]
                                },
                                {
                                    "extension": [
                                        {
                                            "url": "http://uk-koeln.de/fhir/StructureDefinition/Extension/nNGM/seitenlokalisation",
                                            "valueCodeableConcept": {
                                                "coding": [
                                                    {
                                                        "system": "http://uk-koeln.de/fhir/CodeSystem/nngm/OperationSeitenlokalisation",
                                                        "code": "Beidseitig"
                                                    }
                                                ]
                                            }
                                        }
                                    ]
                                }
                            ],
                            "note": [
                                {
                                    "text": "Bemerkungen in SOnstiges Operation 2"
                                }
                            ]
                        },
                        "request": {
                            "method": "PUT",
                            "url": "Procedure/5eb13f6f-66fc-421e-958c-71232b91875b"
                        }
                    },
                    {
                        "resource": {
                            "resourceType": "MedicationAdministration",
                            "meta": {
                                "profile": [
                                    "http://uk-koeln.de/fhir/StructureDefinition/Procedure/nNGM/MedicationAdministration"
                                ]
                            },
                            "subject": {
                                "reference": "http://localhost:4080/administration/Patient/5014fdda-4a6e-47d1-abdd-4632c66c9bf2"
                            },
                            "category": {
                                "coding": [
                                    {
                                        "system": "http://ncit.nci.nih.gov",
                                        "code": "C85582"
                                    }
                                ]
                            },
                            "context": {
                                "identifier": {
                                    "system": "http://www.acme.com/identifiers/patient",
                                    "value": "234243"
                                }
                            },
                            "statusReason": [
                                {
                                    "coding": [
                                        {
                                            "system": "https://www.uk-koeln.de/nngm/CodeSystem/ST_Ende_Grund",
                                            "code": "Reguläres Ende"
                                        }
                                    ]
                                }
                            ],
                            "status": "completed",
                            "supportingInformation": [
                                {
                                    "display": "aölsdkjfölaskjfdölkjasölfdkjasölfdkjsaf"
                                },
                                {
                                    "extension": [
                                        {
                                            "url": "http://uk-koeln.de/fhir/StructureDefinition/Extension/nNGM/therapieinformationen",
                                            "extension": [
                                                {
                                                    "url": "hilfreich",
                                                    "valueBoolean": true
                                                }
                                            ]
                                        }
                                    ]
                                },
                                {
                                    "extension": [
                                        {
                                            "url": "http://uk-koeln.de/fhir/StructureDefinition/Extension/nNGM/therapieinformationen",
                                            "extension": [
                                                {
                                                    "url": "umgesetzt",
                                                    "valueBoolean": true
                                                }
                                            ]
                                        }
                                    ]
                                }
                            ],
                            "performer": [
                                {
                                    "actor": {
                                        "display": "anderes Krankenhaus - Chirurgie"
                                    }
                                }
                            ],
                            "reasonCode": [
                                {
                                    "coding": [
                                        {
                                            "system": "http://uk-koeln.de/fhir/CodeSystem/nngm/intention-therapie",
                                            "code": "Neoadjuvant",
                                            "display": "Neoadjuvant"
                                        }
                                    ]
                                }
                            ],
                            "extension": [
                                {
                                    "url": "http://uk-koeln.de/fhir/StructureDefinition/Extension/cancer-base/studientherapie",
                                    "extension": [
                                        {
                                            "url": "teilnahme",
                                            "valueBoolean": false
                                        }
                                    ]
                                },
                                {
                                    "url": "http://uk-koeln.de/fhir/StructureDefinition/Extension/nNGM/OffLabelTherapie",
                                    "valueBoolean": false
                                },
                                {
                                    "url": "http://uk-koeln.de/fhir/StructureDefinition/Extension/erhaltungstherapie",
                                    "extension": [
                                        {
                                            "url": "option",
                                            "valueBoolean": false
                                        }
                                    ]
                                }
                            ],
                            "effectivePeriod": {
                                "start": "2020-02-01",
                                "end": "2010-08-10"
                            },
                            "medicationCodeableConcept": {
                                "coding": [
                                    {
                                        "system": "http://uk-koeln.de/fhir/CodeSystem/nNGM/SystemischeTherapieMedikation",
                                        "code": "Atezolizumab"
                                    }
                                ]
                            },
                            "dosage": {
                                "rateQuantity": {
                                    "system": "http://unitsofmeasure.org",
                                    "code": "1",
                                    "value": 10
                                }
                            },
                            "id": "9e1846cc-dd9b-4865-93f4-4c35b20e743f",
                            "note": [
                                {
                                    "text": "Bemerkungen Systemische Therapie 2"
                                }
                            ]
                        },
                        "request": {
                            "method": "PUT",
                            "url": "MedicationAdministration/9e1846cc-dd9b-4865-93f4-4c35b20e743f"
                        }
                    },
                    {
                        "resource": {
                            "resourceType": "Observation",
                            "meta": {
                                "profile": [
                                    "http://uk-koeln.de/fhir/StructureDefinition/Observation/nNGM/ecog"
                                ]
                            },
                            "status": "final",
                            "category": [
                                {
                                    "coding": [
                                        {
                                            "system": "http://terminology.hl7.org/CodeSystem/observation-category",
                                            "code": "survey"
                                        }
                                    ]
                                }
                            ],
                            "code": {
                                "coding": [
                                    {
                                        "system": "http://loinc.org",
                                        "code": "89247-1"
                                    }
                                ]
                            },
                            "subject": {
                                "reference": "http://localhost:4080/administration/Patient/5014fdda-4a6e-47d1-abdd-4632c66c9bf2"
                            },
                            "valueCodeableConcept": {
                                "coding": [
                                    {
                                        "system": "urn:oid:1.2.276.0.76.3.1.131.1.5.153",
                                        "code": "2",
                                        "display": "ECOG 2: (Gehfähig, Selbstversorgung möglich, aber nicht arbeitsfähig; kann mehr als 50% der Wachzeit aufstehen)"
                                    }
                                ]
                            },
                            "id": "683bc6d9-7835-4921-93cb-3390d8596c34"
                        },
                        "request": {
                            "method": "PUT",
                            "url": "Observation/683bc6d9-7835-4921-93cb-3390d8596c34"
                        }
                    },
                    {
                        "resource": {
                            "resourceType": "Observation",
                            "meta": {
                                "profile": [
                                    "http://uk-koeln.de/fhir/StructureDefinition/Observation/nNGM/best-response"
                                ]
                            },
                            "status": "unknown",
                            "category": [
                                {
                                    "coding": [
                                        {
                                            "system": "http://terminology.hl7.org/CodeSystem/observation-category",
                                            "code": "therapy"
                                        }
                                    ]
                                }
                            ],
                            "code": {
                                "coding": [
                                    {
                                        "system": "http://ncit.nci.nih.gov",
                                        "code": "C94536"
                                    }
                                ]
                            },
                            "subject": {
                                "reference": "http://localhost:4080/administration/Patient/5014fdda-4a6e-47d1-abdd-4632c66c9bf2"
                            },
                            "partOf": [
                                {
                                    "reference": "http://localhost:4080/administration/MedicationAdministration/9e1846cc-dd9b-4865-93f4-4c35b20e743f"
                                }
                            ],
                            "valueCodeableConcept": {
                                "coding": [
                                    {
                                        "system": "http://terminology.hl7.org/CodeSystem/data-absent-reason",
                                        "code": "not-applicable"
                                    }
                                ]
                            },
                            "method": {
                                "coding": [
                                    {
                                        "system": "http://uk-koeln.de/fhir/CodeSystem/nngm/SystemischeTherapieBeurteilungNach",
                                        "code": "Behandelnder Arzt"
                                    }
                                ]
                            },
                            "id": "39bc0ac2-e7e3-4b74-8a70-34fdda149be8"
                        },
                        "request": {
                            "method": "PUT",
                            "url": "Observation/39bc0ac2-e7e3-4b74-8a70-34fdda149be8"
                        }
                    },
                    {
                        "resource": {
                            "resourceType": "Procedure",
                            "meta": {
                                "profile": [
                                    "http://uk-koeln.de/fhir/StructureDefinition/Procedure/nNGM/Strahlentherapie"
                                ]
                            },
                            "category": {
                                "coding": [
                                    {
                                        "system": "http://uk-koeln.de/fhir/CodeSystem/cancer-base/procedure-category",
                                        "code": "radiotherapy"
                                    }
                                ]
                            },
                            "code": {
                                "coding": [
                                    {
                                        "system": "http://ncit.nci.nih.gov",
                                        "code": "C15313"
                                    }
                                ],
                                "extension": [
                                    {
                                        "url": "http://uk-koeln.de/fhir/StructureDefinition/Extension/nNGM/art-der-bestrahlung",
                                        "valueCodeableConcept": {
                                            "coding": [
                                                {
                                                    "system": "http://uk-koeln.de/fhir/CodeSystem/nNGM/StrahlentherapieArtDerBestrahlung",
                                                    "code": "Sonstige stereotaktische Bestrahlung",
                                                    "display": "Sonstige stereotaktische Bestrahlung"
                                                }
                                            ]
                                        }
                                    }
                                ]
                            },
                            "subject": {
                                "reference": "http://localhost:4080/administration/Patient/5014fdda-4a6e-47d1-abdd-4632c66c9bf2"
                            },
                            "performer": [
                                {
                                    "actor": {
                                        "display": "niedergelassene Einrichtung - beides"
                                    }
                                }
                            ],
                            "performedPeriod": {
                                "start": "2018-10-02",
                                "end": "2082-10-23"
                            },
                            "bodySite": [
                                {
                                    "coding": [
                                        {
                                            "system": "http://uk-koeln.de/fhir/CodeSystem/nngm/Strahlentherapie_Bestrahlungsziel",
                                            "code": "Primärtumorregion",
                                            "display": "Primärtumorregion"
                                        }
                                    ]
                                },
                                {
                                    "coding": [
                                        {
                                            "system": "http://uk-koeln.de/fhir/CodeSystem/nngm/Strahlentherapie_Bestrahlungsziel",
                                            "code": "Regionäre Lymphabflusswege",
                                            "display": "Regionäre Lymphabflusswege"
                                        }
                                    ]
                                },
                                {
                                    "coding": [
                                        {
                                            "system": "http://uk-koeln.de/fhir/CodeSystem/nngm/Strahlentherapie_Bestrahlungsziel",
                                            "code": "Brustwand rechts",
                                            "display": "Brustwand rechts"
                                        }
                                    ]
                                },
                                {
                                    "coding": [
                                        {
                                            "system": "http://uk-koeln.de/fhir/CodeSystem/nngm/Strahlentherapie_Bestrahlungsziel",
                                            "code": "Brustwand links",
                                            "display": "Brustwand links"
                                        }
                                    ]
                                },
                                {
                                    "coding": [
                                        {
                                            "system": "http://uk-koeln.de/fhir/CodeSystem/nngm/Strahlentherapie_Bestrahlungsziel",
                                            "code": "Knochen",
                                            "display": "Knochen"
                                        }
                                    ]
                                },
                                {
                                    "coding": [
                                        {
                                            "system": "http://uk-koeln.de/fhir/CodeSystem/nngm/Strahlentherapie_Bestrahlungsziel",
                                            "code": "Gehirn",
                                            "display": "Gehirn"
                                        }
                                    ]
                                },
                                {
                                    "coding": [
                                        {
                                            "system": "http://uk-koeln.de/fhir/CodeSystem/nngm/Strahlentherapie_Bestrahlungsziel",
                                            "code": "Mediastinum",
                                            "display": "Mediastinum"
                                        }
                                    ]
                                },
                                {
                                    "coding": [
                                        {
                                            "system": "http://terminology.hl7.org/CodeSystem/data-absent-reason",
                                            "code": "not-applicable",
                                            "display": "Not Applicable"
                                        }
                                    ]
                                }
                            ],
                            "reasonCode": [
                                {
                                    "coding": [
                                        {
                                            "system": "http://uk-koeln.de/fhir/CodeSystem/nngm/intention-therapie",
                                            "code": "Neoadjuvant",
                                            "display": "Neoadjuvant"
                                        }
                                    ]
                                }
                            ],
                            "extension": [
                                {
                                    "url": "http://uk-koeln.de/fhir/StructureDefinition/Extension/nNGM/strahlentherapie-dosis",
                                    "extension": [
                                        {
                                            "url": "einzeldosis",
                                            "valueQuantity": {
                                                "value": 1.9,
                                                "system": "http://unitsofmeasure.org",
                                                "code": "Gy"
                                            }
                                        },
                                        {
                                            "url": "gesamtdosis",
                                            "valueQuantity": {
                                                "value": 2.0,
                                                "system": "http://unitsofmeasure.org",
                                                "code": "Gy"
                                            }
                                        },
                                        {
                                            "url": "boost",
                                            "valueBoolean": false
                                        },
                                        {
                                            "url": "boostdosis",
                                            "valueQuantity": {
                                                "value": 8,
                                                "system": "http://unitsofmeasure.org",
                                                "code": "Gy"
                                            }
                                        }
                                    ]
                                }
                            ],
                            "id": "f33f0eb9-9c35-47a5-9915-d27ec54b3da5",
                            "statusReason": {
                                "coding": [
                                    {
                                        "system": "https://www.uk-koeln.de/nngm/CodeSystem/ST_Ende_Grund",
                                        "code": "Reguläres Ende"
                                    },
                                    {
                                        "system": "https://www.uk-koeln.de/nngm/CodeSystem/ST_Ende_Grund",
                                        "code": "Abbruch wegen Nebenwirkungen"
                                    },
                                    {
                                        "system": "https://www.uk-koeln.de/nngm/CodeSystem/ST_Ende_Grund",
                                        "code": "Pause wegen Nebenwirkungen"
                                    },
                                    {
                                        "system": "http://terminology.hl7.org/CodeSystem/data-absent-reason",
                                        "code": "not-applicable"
                                    }
                                ]
                            },
                            "status": "unknown",
                            "note": [
                                {
                                    "text": "asdfasdfasfdsafdasdfasfd"
                                }
                            ]
                        },
                        "request": {
                            "method": "PUT",
                            "url": "Procedure/f33f0eb9-9c35-47a5-9915-d27ec54b3da5"
                        }
                    },
                    {
                        "resource": {
                            "resourceType": "Procedure",
                            "meta": {
                                "profile": [
                                    "http://uk-koeln.de/fhir/StructureDefinition/Procedure/nNGM/SonstigeTherapie"
                                ]
                            },
                            "status": "unknown",
                            "subject": {
                                "reference": "http://localhost:4080/administration/Patient/5014fdda-4a6e-47d1-abdd-4632c66c9bf2"
                            },
                            "code": {
                                "coding": [
                                    {
                                        "system": "http://ncit.nci.nih.gov",
                                        "code": "C15645"
                                    }
                                ]
                            },
                            "category": {
                                "coding": [
                                    {
                                        "system": "http://uk-koeln.de/fhir/CodeSystem/nngm/SonstigeTherapieArtDerTherapie",
                                        "code": "anderes Verfahren"
                                    }
                                ]
                            },
                            "performedPeriod": {
                                "start": "2018-04-12",
                                "end": "2018-04-13"
                            },
                            "performer": [
                                {
                                    "actor": {
                                        "display": "anderes Krankenhaus - Strahlentherapie"
                                    }
                                }
                            ],
                            "reasonCode": [
                                {
                                    "coding": [
                                        {
                                            "system": "http://ncit.nci.nih.gov",
                                            "code": "C17649",
                                            "display": "Other"
                                        }
                                    ],
                                    "extension": [
                                        {
                                            "url": "http://uk-koeln.de/fhir/StructureDefinition/Extension/nNGM/beschreiung-alternativer-methode",
                                            "valueString": "Bezeichnung der alternativen Methoden"
                                        }
                                    ]
                                },
                                {
                                    "text": "Other TherapieMerkmale"
                                }
                            ],
                            "id": "9705d75b-ec62-47d2-8951-4bfe65a3149b",
                            "extension": [
                                {
                                    "url": "http://uk-koeln.de/fhir/StructureDefinition/Extension/nNGM/maintenance",
                                    "valueBoolean": true
                                }
                            ],
                            "note": [
                                {
                                    "text": "Bemerkungen Sonstige Therapie 2"
                                }
                            ]
                        },
                        "request": {
                            "method": "PUT",
                            "url": "Procedure/9705d75b-ec62-47d2-8951-4bfe65a3149b"
                        }
                    }
                ],
                "id": "d562c761-8529-4527-9837-1ad9f655c8c4",
                "type": "transaction"
            }
        }
    ]
}