{
  "resourceType": "Bundle",
  "entry": [
    {
      "resource": {
        "resourceType": "Composition",
        "id": "ea597579-fe39-401c-8ca5-27b559594494",
        "meta": {
          "profile": [
            "http://uk-koeln.de/fhir/StructureDefinition/Composition/nNGM/Therapie-pseudonymisiert"
          ]
        },
        "type": {
          "coding": [
            {
              "system": "http://uk-koeln.de/fhir/CodeSystem/nngm/compositions",
              "code": "therapie"
            }
          ]
        },
        "category": [
          {
            "coding": [
              {
                "system": "http://uk-koeln.de/fhir/CodeSystem/nngm/composition-category",
                "code": "psn"
              }
            ]
          }
        ],
        "title": "Therapie pseudonymisiert",
        "status": "final",
        "subject": {
          "reference": "https://vonk.fhir.dev.healex.systems/administration/620c7635-8810-48a7-843e-3b037aa860ae",
          "identifier": {
            "system": "http://uk-koeln.de/fhir/NamingSystem/nNGM/patient-identifier",
            "value": "1wy299WK"
          }
        },
        "date": "2021-01-22T12:58:44+01:00",
        "author": [
          {
            "extension": [
              {
                "url": "http://hl7.org/fhir/StructureDefinition/data-absent-reason",
                "valueCode": "not-asked"
              }
            ]
          },
          {
            "extension": [
              {
                "url": "http://hl7.org/fhir/StructureDefinition/data-absent-reason",
                "valueCode": "not-asked"
              }
            ]
          },
          {
            "extension": [
              {
                "url": "http://hl7.org/fhir/StructureDefinition/data-absent-reason",
                "valueCode": "not-asked"
              }
            ]
          },
          {
            "extension": [
              {
                "url": "http://hl7.org/fhir/StructureDefinition/data-absent-reason",
                "valueCode": "not-asked"
              }
            ]
          },
          {
            "extension": [
              {
                "url": "http://hl7.org/fhir/StructureDefinition/data-absent-reason",
                "valueCode": "not-asked"
              }
            ]
          },
          {
            "extension": [
              {
                "url": "http://hl7.org/fhir/StructureDefinition/data-absent-reason",
                "valueCode": "not-asked"
              }
            ]
          }
        ],
        "section": [
          {
            "code": {
              "coding": [
                {
                  "system": "http://uk-koeln.de/fhir/CodeSystem/nngm/sections",
                  "code": "operation"
                }
              ]
            },
            "entry": [
              {
                "reference": "https://vonk.fhir.dev.healex.systems/administration/Procedure/9b583052-ad31-4ed3-900a-9f650b6ddc3c"
              },
              {
                "display": "operation",
                "identifier": {
                  "system": "http://uk-koeln.de/NamingSystem/nNGM/formularId",
                  "value": "1"
                }
              }
            ]
          },
          {
            "code": {
              "coding": [
                {
                  "system": "http://uk-koeln.de/fhir/CodeSystem/nngm/sections",
                  "code": "systemischeTherapie"
                }
              ]
            },
            "entry": [
              {
                "reference": "https://vonk.fhir.dev.healex.systems/administration/MedicationAdministration/65ce7d06-eb77-4dce-afa2-a96d4ab3d9da"
              },
              {
                "reference": "https://vonk.fhir.dev.healex.systems/administration/EpisodeOfCare/c4da2d0f-d61d-4e43-b211-0e3ef6d7c05c"
              },
              {
                "reference": "https://vonk.fhir.dev.healex.systems/administration/Observation/1b4e47b8-1dd3-4948-b9eb-94b69de32eba"
              },
              {
                "reference": "https://vonk.fhir.dev.healex.systems/administration/Observation/356b7608-9ee3-478a-82be-5f3fc8a8e004"
              },
              {
                "display": "systemischeTherapie",
                "identifier": {
                  "system": "http://uk-koeln.de/NamingSystem/nNGM/formularId",
                  "value": "1"
                }
              }
            ]
          },
          {
            "code": {
              "coding": [
                {
                  "system": "http://uk-koeln.de/fhir/CodeSystem/nngm/sections",
                  "code": "strahlentherapie"
                }
              ]
            },
            "entry": [
              {
                "reference": "https://vonk.fhir.dev.healex.systems/administration/Procedure/f7feac48-d291-4eab-9b49-2cd350c4f4f1"
              },
              {
                "reference": "https://vonk.fhir.dev.healex.systems/administration/EpisodeOfCare/d27c8a34-7806-4306-9c31-3cd8301d640f"
              },
              {
                "display": "strahlentherapie",
                "identifier": {
                  "system": "http://uk-koeln.de/NamingSystem/nNGM/formularId",
                  "value": "1"
                }
              }
            ]
          },
          {
            "code": {
              "coding": [
                {
                  "system": "http://uk-koeln.de/fhir/CodeSystem/nngm/sections",
                  "code": "sonstigeTherapie"
                }
              ]
            },
            "entry": [
              {
                "reference": "https://vonk.fhir.dev.healex.systems/administration/Procedure/6c23e310-240b-4915-b358-9d23b59c6d3d"
              },
              {
                "display": "sonstigeTherapie",
                "identifier": {
                  "system": "http://uk-koeln.de/NamingSystem/nNGM/formularId",
                  "value": "1"
                }
              }
            ]
          }
        ]
      },
      "request": {
        "method": "PUT",
        "url": "Composition/ea597579-fe39-401c-8ca5-27b559594494"
      }
    },
    {
      "resource": {
        "resourceType": "Procedure",
        "meta": {
          "profile": [
            "http://uk-koeln.de/fhir/StructureDefinition/Procedure/nNGM/OP"
          ]
        },
        "status": "unknown",
        "subject": {
          "reference": "https://vonk.fhir.dev.healex.systems/administration/Patient/620c7635-8810-48a7-843e-3b037aa860ae"
        },
        "code": {
          "coding": [
            {
              "system": "http://ncit.nci.nih.gov",
              "code": "C15329"
            }
          ],
          "extension": [
            {
              "url": "http://uk-koeln.de/fhir/StructureDefinition/Extension/nNGM/art-des-eingriffs",
              "valueCodeableConcept": {
                "coding": [
                  {
                    "system": "http://uk-koeln.de/fhir/CodeSystem/ngnm/OperationArtDesEingriffs",
                    "code": "Bilobektomie"
                  }
                ]
              }
            },
            {
              "url": "http://uk-koeln.de/fhir/StructureDefinition/Extension/nNGM/art-des-eingriffs",
              "valueCodeableConcept": {
                "coding": [
                  {
                    "system": "http://uk-koeln.de/fhir/CodeSystem/ngnm/OperationArtDesEingriffs",
                    "code": "Pleurektomie (Dekortikation)"
                  }
                ]
              }
            }
          ]
        },
        "category": {
          "coding": [
            {
              "_system": {
                "extension": [
                  {
                    "url": "http://hl7.org/fhir/StructureDefinition/data-absent-reason",
                    "valueCode": "not-asked"
                  }
                ]
              },
              "_code": {
                "extension": [
                  {
                    "url": "http://hl7.org/fhir/StructureDefinition/data-absent-reason",
                    "valueCode": "not-asked"
                  }
                ]
              }
            }
          ]
        },
        "performer": [
          {
            "actor": {
              "display": "niedergelassene Einrichtung - Chirurgie"
            }
          }
        ],
        "performedDateTime": "2021-01-01",
        "id": "9b583052-ad31-4ed3-900a-9f650b6ddc3c",
        "reasonCode": [
          {
            "coding": [
              {
                "system": "http://uk-koeln.de/fhir/CodeSystem/nngm/intention-therapie",
                "code": "Kurativ"
              }
            ]
          }
        ],
        "extension": [
          {
            "url": "http://uk-koeln.de/fhir/StructureDefinition/Extension/nNGM/lymphadenektomie",
            "valueBoolean": true
          }
        ],
        "bodySite": [
          {
            "coding": [
              {
                "system": "http://uk-koeln.de/fhir/ValueSet/nNGM/OperationLokalisationUNK",
                "code": "Gehirn"
              }
            ],
            "text": "other"
          },
          {
            "coding": [
              {
                "system": "http://ncit.nci.nih.gov",
                "code": "C17649"
              }
            ]
          },
          {
            "extension": [
              {
                "url": "http://uk-koeln.de/fhir/StructureDefinition/Extension/nNGM/seitenlokalisation",
                "valueCodeableConcept": {
                  "coding": [
                    {
                      "system": "http://uk-koeln.de/fhir/CodeSystem/nngm/OperationSeitenlokalisation",
                      "code": "Beidseitig"
                    }
                  ]
                }
              }
            ]
          }
        ],
        "note": [
          {
            "text": "Bemerkung"
          }
        ]
      },
      "request": {
        "method": "PUT",
        "url": "Procedure/9b583052-ad31-4ed3-900a-9f650b6ddc3c"
      }
    },
    {
      "resource": {
        "resourceType": "MedicationAdministration",
        "meta": {
          "profile": [
            "http://uk-koeln.de/fhir/StructureDefinition/Procedure/nNGM/MedicationAdministration"
          ]
        },
        "subject": {
          "reference": "https://vonk.fhir.dev.healex.systems/administration/Patient/620c7635-8810-48a7-843e-3b037aa860ae"
        },
        "context": {
          "identifier": {
            "system": "http://www.acme.com/identifiers/patient",
            "value": "123456"
          }
        },
        "supportingInformation": [
          {
            "display": "Therapieinformation"
          },
          {
            "extension": [
              {
                "url": "http://uk-koeln.de/fhir/StructureDefinition/Extension/nNGM/therapieinformationen",
                "extension": [
                  {
                    "url": "hilfreich",
                    "valueBoolean": true
                  }
                ]
              }
            ]
          },
          {
            "extension": [
              {
                "url": "http://uk-koeln.de/fhir/StructureDefinition/Extension/nNGM/therapieinformationen",
                "extension": [
                  {
                    "url": "umgesetzt",
                    "valueBoolean": false
                  }
                ]
              }
            ]
          },
          {
            "extension": [
              {
                "url": "http://uk-koeln.de/fhir/StructureDefinition/Extension/nNGM/therapieinformationen",
                "extension": [
                  {
                    "url": "nichtumsetzungGrund",
                    "valueCodeableConcept": {
                      "coding": [
                        {
                          "system": "http://uk-koeln.de/fhir/CodeSystem/nngm/SystemischeTherapieGrundNichtumsetzung",
                          "code": "Logistischer Aufwand"
                        }
                      ]
                    }
                  }
                ]
              }
            ]
          }
        ],
        "performer": [
          {
            "actor": {
              "display": "nNGM-Zentrum"
            }
          }
        ],
        "reasonCode": [
          {
            "coding": [
              {
                "system": "http://uk-koeln.de/fhir/CodeSystem/nngm/intention-therapie",
                "code": "Kurativ",
                "display": "Kurativ"
              }
            ]
          }
        ],
        "extension": [
          {
            "url": "http://uk-koeln.de/fhir/StructureDefinition/Extension/cancer-base/studientherapie",
            "extension": [
              {
                "url": "teilnahme",
                "valueBoolean": true
              },
              {
                "url": "studie",
                "valueReference": {
                  "reference": "https://vonk.fhir.dev.healex.systems/administration/2471",
                  "display": "2471"
                }
              },
              {
                "url": "medikament",
                "valueCodeableConcept": {
                  "coding": [
                    {
                      "system": "http://uk-koeln.de/fhir/CodeSystem/nNGM/SystemischeTherapieMedikation",
                      "code": "nab-Paclitaxel/Atezolizumab"
                    }
                  ]
                }
              }
            ]
          },
          {
            "url": "http://uk-koeln.de/fhir/StructureDefinition/Extension/nNGM/OffLabelTherapie",
            "valueBoolean": true
          },
          {
            "url": "http://uk-koeln.de/fhir/StructureDefinition/Extension/erhaltungstherapie",
            "extension": [
              {
                "url": "option",
                "valueBoolean": true
              }
            ]
          },
          {
            "url": "http://uk-koeln.de/fhir/StructureDefinition/Extension/nNGM/Nebenwirkung",
            "valueBoolean": false
          }
        ],
        "effectivePeriod": {
          "end": "2021-06-06"
        },
        "medicationCodeableConcept": {
          "coding": [
            {
              "system": "http://uk-koeln.de/fhir/CodeSystem/nNGM/SystemischeTherapieMedikation",
              "code": "BGJ398"
            },
            {
              "system": "http://uk-koeln.de/fhir/CodeSystem/nNGM/SystemischeTherapieMedikation",
              "code": "BGJ398"
            }
          ],
          "text": "NeuesTherapieschema"
        },
        "dosage": {
          "rateQuantity": {
            "system": "http://unitsofmeasure.org",
            "code": "1",
            "value": 52
          }
        },
        "category": {
          "coding": [
            {
              "system": "http://terminology.hl7.org/CodeSystem/data-absent-reason",
              "code": "not-applicable"
            }
          ]
        },
        "id": "65ce7d06-eb77-4dce-afa2-a96d4ab3d9da",
        "status": "on-hold",
        "statusReason": [
          {
            "coding": [
              {
                "system": "https://www.uk-koeln.de/nngm/CodeSystem/ST_Ende_Grund",
                "code": "Reguläres Ende",
                "display": "Reguläres Ende"
              }
            ],
            "text": "Ablehnung des Patienten"
          },
          {
            "coding": [
              {
                "system": "https://www.uk-koeln.de/nngm/CodeSystem/ST_Ende_Grund",
                "code": "nebenwirkungenpa",
                "display": "Pause wegen Nebenwirkungen"
              }
            ]
          }
        ],
        "note": [
          {
            "text": "Sonstiges Bemerkungen"
          }
        ]
      },
      "request": {
        "method": "PUT",
        "url": "MedicationAdministration/65ce7d06-eb77-4dce-afa2-a96d4ab3d9da"
      }
    },
    {
      "resource": {
        "resourceType": "EpisodeOfCare",
        "meta": {
          "profile": [
            "http://uk-koeln.de/fhir/StructureDefinition/EpisodeOfCare/nNGM"
          ]
        },
        "identifier": [
          {
            "system": "http://uk-koeln.de/NamingSystem/nNGM/fallnummer",
            "_value": {
              "extension": [
                {
                  "url": "http://hl7.org/fhir/StructureDefinition/data-absent-reason",
                  "valueCode": "not-asked"
                }
              ]
            }
          }
        ],
        "status": "active",
        "patient": {
          "reference": "https://vonk.fhir.dev.healex.systems/administration/Patient/620c7635-8810-48a7-843e-3b037aa860ae"
        },
        "extension": [
          {
            "url": "http://uk-koeln.de/fhir/StructureDefinition/Extension/nNGM/datumProgress",
            "valueDate": "2021-10-22"
          }
        ],
        "id": "c4da2d0f-d61d-4e43-b211-0e3ef6d7c05c"
      },
      "request": {
        "method": "PUT",
        "url": "EpisodeOfCare/c4da2d0f-d61d-4e43-b211-0e3ef6d7c05c"
      }
    },
    {
      "resource": {
        "resourceType": "Observation",
        "meta": {
          "profile": [
            "http://uk-koeln.de/fhir/StructureDefinition/Observation/nNGM/ecog"
          ]
        },
        "status": "final",
        "category": [
          {
            "coding": [
              {
                "system": "http://terminology.hl7.org/CodeSystem/observation-category",
                "code": "survey"
              }
            ]
          }
        ],
        "code": {
          "coding": [
            {
              "system": "http://loinc.org",
              "code": "89247-1"
            }
          ]
        },
        "subject": {
          "reference": "https://vonk.fhir.dev.healex.systems/administration/Patient/620c7635-8810-48a7-843e-3b037aa860ae"
        },
        "valueCodeableConcept": {
          "coding": [
            {
              "system": "urn:oid:1.2.276.0.76.3.1.131.1.5.153",
              "code": "4",
              "display": "ECOG 4: (Völlig pflegebedürftig, keinerlei Selbstversorgung möglich; völlig an Bett oder Stuhl gebunden)"
            }
          ]
        },
        "id": "1b4e47b8-1dd3-4948-b9eb-94b69de32eba"
      },
      "request": {
        "method": "PUT",
        "url": "Observation/1b4e47b8-1dd3-4948-b9eb-94b69de32eba"
      }
    },
    {
      "resource": {
        "resourceType": "Observation",
        "meta": {
          "profile": [
            "http://uk-koeln.de/fhir/StructureDefinition/Observation/nNGM/best-response"
          ]
        },
        "status": "unknown",
        "category": [
          {
            "coding": [
              {
                "system": "http://terminology.hl7.org/CodeSystem/observation-category",
                "code": "therapy"
              }
            ]
          }
        ],
        "code": {
          "coding": [
            {
              "system": "http://ncit.nci.nih.gov",
              "code": "C94536"
            }
          ]
        },
        "subject": {
          "reference": "https://vonk.fhir.dev.healex.systems/administration/Patient/620c7635-8810-48a7-843e-3b037aa860ae"
        },
        "partOf": [
          {
            "reference": "https://vonk.fhir.dev.healex.systems/administration/MedicationAdministration/65ce7d06-eb77-4dce-afa2-a96d4ab3d9da"
          }
        ],
        "valueCodeableConcept": {
          "coding": [
            {
              "system": "http://uk-koeln.de/fhir/CodeSystem/nngm/SystemischeTherapieRECIST",
              "code": "SD",
              "display": "Stable Disease"
            }
          ]
        },
        "method": {
          "coding": [
            {
              "system": "http://uk-koeln.de/fhir/CodeSystem/nngm/SystemischeTherapieBeurteilungNach",
              "code": "RECIST"
            }
          ]
        },
        "id": "356b7608-9ee3-478a-82be-5f3fc8a8e004"
      },
      "request": {
        "method": "PUT",
        "url": "Observation/356b7608-9ee3-478a-82be-5f3fc8a8e004"
      }
    },
    {
      "resource": {
        "resourceType": "Procedure",
        "meta": {
          "profile": [
            "http://uk-koeln.de/fhir/StructureDefinition/Procedure/nNGM/Strahlentherapie"
          ]
        },
        "category": {
          "coding": [
            {
              "system": "http://uk-koeln.de/fhir/CodeSystem/cancer-base/procedure-category",
              "code": "radiotherapy"
            }
          ]
        },
        "code": {
          "coding": [
            {
              "system": "http://ncit.nci.nih.gov",
              "code": "C15313"
            }
          ],
          "extension": [
            {
              "url": "http://uk-koeln.de/fhir/StructureDefinition/Extension/nNGM/art-der-bestrahlung",
              "valueCodeableConcept": {
                "coding": [
                  {
                    "system": "http://uk-koeln.de/fhir/CodeSystem/nNGM/StrahlentherapieArtDerBestrahlung",
                    "code": "Cyberknife",
                    "display": "Cyberknife"
                  }
                ]
              }
            }
          ]
        },
        "subject": {
          "reference": "https://vonk.fhir.dev.healex.systems/administration/Patient/620c7635-8810-48a7-843e-3b037aa860ae"
        },
        "performer": [
          {
            "actor": {
              "display": "anderes Krankenhaus - Onkologie"
            }
          }
        ],
        "performedPeriod": {
          "start": "2021-01-03",
          "end": "2021-01-04"
        },
        "bodySite": [
          {
            "coding": [
              {
                "system": "http://uk-koeln.de/fhir/CodeSystem/nngm/Strahlentherapie_Bestrahlungsziel",
                "code": "Primärtumorregion",
                "display": "Primärtumorregion"
              }
            ]
          },
          {
            "coding": [
              {
                "system": "http://uk-koeln.de/fhir/CodeSystem/nngm/Strahlentherapie_Bestrahlungsziel",
                "code": "Gehirn",
                "display": "Gehirn"
              }
            ]
          }
        ],
        "reasonCode": [
          {
            "coding": [
              {
                "system": "http://uk-koeln.de/fhir/CodeSystem/nngm/intention-therapie",
                "code": "Definitiv mit Chemotherapie",
                "display": "Definitiv mit Chemotherapie"
              }
            ]
          }
        ],
        "extension": [
          {
            "url": "http://uk-koeln.de/fhir/StructureDefinition/Extension/nNGM/strahlentherapie-dosis",
            "extension": [
              {
                "url": "einzeldosis",
                "valueQuantity": {
                  "value": 1.7,
                  "system": "http://unitsofmeasure.org",
                  "code": "Gy"
                }
              },
              {
                "url": "gesamtdosis",
                "valueQuantity": {
                  "value": 99.2,
                  "system": "http://unitsofmeasure.org",
                  "code": "Gy"
                }
              },
              {
                "url": "boostdosisInGesamtdosis",
                "valueBoolean": true
              },
              {
                "url": "boostdosis",
                "valueQuantity": {
                  "value": 0.4,
                  "system": "http://unitsofmeasure.org",
                  "code": "Gy"
                }
              }
            ]
          }
        ],
        "id": "f7feac48-d291-4eab-9b49-2cd350c4f4f1",
        "status": "on-hold",
        "statusReason": {
          "coding": [
            {
              "system": "https://www.uk-koeln.de/nngm/CodeSystem/ST_Ende_Grund",
              "code": "Pause wegen Nebenwirkungen"
            }
          ]
        },
        "note": [
          {
            "text": "Sonstiges Bemerkungen"
          }
        ]
      },
      "request": {
        "method": "PUT",
        "url": "Procedure/f7feac48-d291-4eab-9b49-2cd350c4f4f1"
      }
    },
    {
      "resource": {
        "resourceType": "EpisodeOfCare",
        "meta": {
          "profile": [
            "http://uk-koeln.de/fhir/StructureDefinition/EpisodeOfCare/nNGM"
          ]
        },
        "identifier": [
          {
            "system": "http://uk-koeln.de/NamingSystem/nNGM/fallnummer",
            "_value": {
              "extension": [
                {
                  "url": "http://hl7.org/fhir/StructureDefinition/data-absent-reason",
                  "valueCode": "not-asked"
                }
              ]
            }
          }
        ],
        "status": "active",
        "patient": {
          "reference": "https://vonk.fhir.dev.healex.systems/administration/Patient/620c7635-8810-48a7-843e-3b037aa860ae"
        },
        "extension": [
          {
            "url": "http://uk-koeln.de/fhir/StructureDefinition/Extension/nNGM/datumProgress",
            "valueDate": "2021-10-19"
          }
        ],
        "id": "d27c8a34-7806-4306-9c31-3cd8301d640f"
      },
      "request": {
        "method": "PUT",
        "url": "EpisodeOfCare/d27c8a34-7806-4306-9c31-3cd8301d640f"
      }
    },
    {
      "resource": {
        "resourceType": "Procedure",
        "meta": {
          "profile": [
            "http://uk-koeln.de/fhir/StructureDefinition/Procedure/nNGM/SonstigeTherapie"
          ]
        },
        "status": "unknown",
        "subject": {
          "reference": "https://vonk.fhir.dev.healex.systems/administration/Patient/620c7635-8810-48a7-843e-3b037aa860ae"
        },
        "code": {
          "coding": [
            {
              "system": "http://ncit.nci.nih.gov",
              "code": "C15645"
            }
          ],
          "extension": [
            {
              "url": "http://uk-koeln.de/fhir/StructureDefinition/Extension/nNGM/methode-sonstige-therapie",
              "extension": [
                {
                  "url": "methode",
                  "valueCodeableConcept": {
                    "coding": [
                      {
                        "system": "http://uk-koeln.de/fhir/CodeSystem/nngm/SonstigeTherapieMethode",
                        "code": "Transarterielle Chemoembolisation"
                      }
                    ]
                  }
                }
              ]
            }
          ]
        },
        "category": {
          "coding": [
            {
              "system": "http://uk-koeln.de/fhir/CodeSystem/nngm/SonstigeTherapieArtDerTherapie",
              "code": "lokales Verfahren"
            }
          ]
        },
        "performedPeriod": {
          "start": "2021-07-07",
          "end": "2021-08-08"
        },
        "performer": [
          {
            "actor": {
              "display": "ausländische Einrichtung"
            }
          }
        ],
        "reasonCode": [
          {
            "extension": [
              {
                "url": "http://uk-koeln.de/fhir/StructureDefinition/Extension/nNGM/grund-keine-therapie",
                "valueCodeableConcept": {
                  "coding": [
                    {
                      "system": "http://uk-koeln.de/fhir/CodeSystem/nngm/SonstigeTherapieGrundKeineTherapie",
                      "code": "ECOG"
                    }
                  ]
                }
              },
              {
                "url": "http://uk-koeln.de/fhir/StructureDefinition/Extension/nNGM/beschreiung-alternativer-methode",
                "valueString": "Alternatieve methoden beschreibung"
              }
            ]
          },
          {
            "coding": [
              {
                "system": "http://uk-koeln.de/fhir/CodeSystem/nngm/intention-sonstige-therapie",
                "code": "alternative-methoden",
                "display": "Alternative Methoden"
              }
            ]
          }
        ],
        "bodySite": [
          {
            "coding": [
              {
                "system": "http://uk-koeln.de/fhir/CodeSystem/nNGM/OperationLokalisation",
                "code": "Leber"
              }
            ]
          }
        ],
        "extension": [
          {
            "url": "http://uk-koeln.de/fhir/StructureDefinition/Extension/nNGM/maintenance",
            "valueBoolean": true
          }
        ],
        "note": [
          {
            "text": "Bemerkung"
          }
        ],
        "id": "6c23e310-240b-4915-b358-9d23b59c6d3d"
      },
      "request": {
        "method": "PUT",
        "url": "Procedure/6c23e310-240b-4915-b358-9d23b59c6d3d"
      }
    }
  ],
  "id": "9508dbd9-ac0a-4f6a-804d-9787f2a72d46",
  "type": "transaction"
}
