{
    "resourceType": "Bundle",
<<<<<<< master
<<<<<<< master
    "id": "b38a7b6a-c72b-49c2-ae0f-4fafb390a1ab",
=======
    "id": "7a849e3e-a9c6-49f1-9d50-d89e78c1cf30",
>>>>>>> init
=======
    "id": "b38a7b6a-c72b-49c2-ae0f-4fafb390a1ab",
>>>>>>> test data merge
    "type": "collection",
    "entry": [
        {
            "resource": {
                "resourceType": "Bundle",
                "entry": [
                    {
                        "resource": {
                            "resourceType": "Composition",
                            "title": "Stammdaten",
<<<<<<< master
<<<<<<< master
                            "id": "70401ffe-5c5b-4d0e-982d-51eaaefbcf63",
                            "meta": {
                                "profile": [
                                    "http://uk-koeln.de/fhir/StructureDefinition/Composition/nNGM/Stammdaten-pseudonymisiert"
=======
                            "id": "c91c4ef1-1d93-4642-b8b6-445fc16536ea",
                            "meta": {
                                "profile": [
                                    "http://uk-koeln.de/fhir/StructureDefinition/Composition/nNGM/Stammdaten"
>>>>>>> init
=======
                            "id": "70401ffe-5c5b-4d0e-982d-51eaaefbcf63",
                            "meta": {
                                "profile": [
                                    "http://uk-koeln.de/fhir/StructureDefinition/Composition/nNGM/Stammdaten-pseudonymisiert"
>>>>>>> test data merge
                                ]
                            },
                            "status": "final",
                            "type": {
                                "coding": [
                                    {
                                        "system": "http://uk-koeln.de/fhir/CodeSystem/nngm/compositions",
                                        "code": "stammdaten"
                                    }
                                ]
                            },
                            "category": [
                                {
                                    "coding": [
                                        {
                                            "system": "http://uk-koeln.de/fhir/CodeSystem/nngm/composition-category",
                                            "code": "idat"
                                        }
                                    ]
                                }
                            ],
                            "subject": {
<<<<<<< master
<<<<<<< master
=======
>>>>>>> test data merge
                                "reference": "http://localhost:4080/administration/620c7635-8810-48a7-843e-3b037aa860ae",
                                "identifier": {
                                    "system": "http://uk-koeln.de/fhir/NamingSystem/nNGM/patient-identifier",
                                    "value": ""
                                }
<<<<<<< master
                            },
                            "date": "2021-01-07T10:54:59+01:00",
=======
                                "reference": "http://localhost:4080/administration/d5459b35-72c5-45e8-96df-c502c415554e"
                            },
                            "date": "2021-01-04T11:47:12+01:00",
>>>>>>> init
=======
                            },
                            "date": "2021-01-07T10:54:59+01:00",
>>>>>>> test data merge
                            "section": [
                                {
                                    "code": {
                                        "coding": [
                                            {
                                                "system": "http://uk-koeln.de/fhir/CodeSystem/nngm/sections",
                                                "code": "stammdaten"
                                            }
                                        ]
                                    },
                                    "entry": [
                                        {
<<<<<<< master
<<<<<<< master
                                            "reference": "http://localhost:4080/administration/Patient/620c7635-8810-48a7-843e-3b037aa860ae"
                                        },
                                        {
                                            "reference": "http://localhost:4080/administration/Coverage/bdd7d7de-4326-45f1-9168-8c1adbf5f624"
                                        },
                                        {
                                            "reference": "http://localhost:4080/administration/Patient/0ea3bde8-0fb5-472b-8cc0-437e96ca548c"
                                        },
                                        {
                                            "reference": "http://localhost:4080/administration/Consent/82964a95-abed-4a54-ac54-4948a0e63ae0"
                                        },
                                        {
                                            "reference": "http://localhost:4080/administration/Consent/091c943d-ddfc-48a7-941f-fd09f7a295a1"
=======
                                            "reference": "http://localhost:4080/administration/Patient/d5459b35-72c5-45e8-96df-c502c415554e"
=======
                                            "reference": "http://localhost:4080/administration/Patient/620c7635-8810-48a7-843e-3b037aa860ae"
>>>>>>> test data merge
                                        },
                                        {
                                            "reference": "http://localhost:4080/administration/Coverage/bdd7d7de-4326-45f1-9168-8c1adbf5f624"
                                        },
                                        {
                                            "reference": "http://localhost:4080/administration/Patient/0ea3bde8-0fb5-472b-8cc0-437e96ca548c"
                                        },
                                        {
                                            "reference": "http://localhost:4080/administration/Consent/82964a95-abed-4a54-ac54-4948a0e63ae0"
                                        },
                                        {
<<<<<<< master
                                            "reference": "http://localhost:4080/administration/Consent/b91ed9a6-4594-4f47-8032-9e2afa59ddb4"
>>>>>>> init
=======
                                            "reference": "http://localhost:4080/administration/Consent/091c943d-ddfc-48a7-941f-fd09f7a295a1"
>>>>>>> test data merge
                                        }
                                    ]
                                }
                            ]
                        }
                    },
                    {
                        "resource": {
                            "resourceType": "Patient",
                            "meta": {
                                "profile": [
                                    "http://uk-koeln.de/fhir/StructureDefinition/Patient/nNGM"
                                ]
                            },
                            "gender": "male",
                            "address": [
                                {
<<<<<<< master
<<<<<<< master
                                    "country": "AUT"
                                }
                            ],
                            "id": "620c7635-8810-48a7-843e-3b037aa860ae"
                        },
                        "request": {
                            "method": "PUT",
                            "url": "Patient/620c7635-8810-48a7-843e-3b037aa860ae"
=======
                                    "country": "DEU"
=======
                                    "country": "AUT"
>>>>>>> test data merge
                                }
                            ],
                            "id": "620c7635-8810-48a7-843e-3b037aa860ae"
                        },
                        "request": {
                            "method": "PUT",
<<<<<<< master
                            "url": "Patient/d5459b35-72c5-45e8-96df-c502c415554e"
>>>>>>> init
=======
                            "url": "Patient/620c7635-8810-48a7-843e-3b037aa860ae"
>>>>>>> test data merge
                        }
                    },
                    {
                        "resource": {
                            "resourceType": "Coverage",
                            "meta": {
                                "profile": [
                                    "http://uk-koeln.de/fhir/StructureDefinition/Coverage/nNGM"
                                ]
                            },
                            "status": "active",
                            "beneficiary": {
<<<<<<< master
<<<<<<< master
                                "reference": "http://localhost:4080/administration/Patient/620c7635-8810-48a7-843e-3b037aa860ae"
                            },
                            "subscriber": {
                                "reference": "http://localhost:4080/administration/Patient/620c7635-8810-48a7-843e-3b037aa860ae"
=======
                                "reference": "http://localhost:4080/administration/Patient/d5459b35-72c5-45e8-96df-c502c415554e"
                            },
                            "subscriber": {
                                "reference": "http://localhost:4080/administration/Patient/d5459b35-72c5-45e8-96df-c502c415554e"
>>>>>>> init
=======
                                "reference": "http://localhost:4080/administration/Patient/620c7635-8810-48a7-843e-3b037aa860ae"
                            },
                            "subscriber": {
                                "reference": "http://localhost:4080/administration/Patient/620c7635-8810-48a7-843e-3b037aa860ae"
>>>>>>> test data merge
                            },
                            "type": {
                                "coding": [
                                    {
                                        "system": "http://fhir.de/ValueSet/versicherungsart-de-basis",
                                        "code": "GKV"
                                    }
                                ]
                            },
                            "payor": [
                                {
<<<<<<< master
<<<<<<< master
                                    "display": "AOK Bremen/Bremerhaven"
=======
                                    "display": "actimonda krankenkasse"
>>>>>>> init
=======
                                    "display": "AOK Bremen/Bremerhaven"
>>>>>>> test data merge
                                }
                            ],
                            "extension": [
                                {
                                    "url": "http://uk-koeln.de/fhir/StructureDefinition/Extension/nNGM/kooperationsvereinbarung",
                                    "valueBoolean": false
                                }
                            ],
<<<<<<< master
<<<<<<< master
                            "id": "bdd7d7de-4326-45f1-9168-8c1adbf5f624"
                        },
                        "request": {
                            "method": "PUT",
                            "url": "Coverage/bdd7d7de-4326-45f1-9168-8c1adbf5f624"
=======
                            "id": "916bcf0b-f213-4cb9-a894-0a5c17b71686"
                        },
                        "request": {
                            "method": "PUT",
                            "url": "Coverage/916bcf0b-f213-4cb9-a894-0a5c17b71686"
>>>>>>> init
=======
                            "id": "bdd7d7de-4326-45f1-9168-8c1adbf5f624"
                        },
                        "request": {
                            "method": "PUT",
                            "url": "Coverage/bdd7d7de-4326-45f1-9168-8c1adbf5f624"
>>>>>>> test data merge
                        }
                    },
                    {
                        "resource": {
                            "resourceType": "EpisodeOfCare",
                            "meta": {
                                "profile": [
                                    "http://uk-koeln.de/fhir/StructureDefinition/EpisodeOfCare/nNGM"
                                ]
                            },
                            "patient": {
<<<<<<< master
<<<<<<< master
                                "reference": "http://localhost:4080/administration/Patient/620c7635-8810-48a7-843e-3b037aa860ae"
=======
                                "reference": "http://localhost:4080/administration/Patient/d5459b35-72c5-45e8-96df-c502c415554e"
>>>>>>> init
=======
                                "reference": "http://localhost:4080/administration/Patient/620c7635-8810-48a7-843e-3b037aa860ae"
>>>>>>> test data merge
                            },
                            "status": "active",
                            "_status": {
                                "extension": [
                                    {
                                        "url": "http://uk-koeln.de/fhir/StructureDefinition/Extension/nNGM/FollowUpStatus",
                                        "valueCodeableConcept": {
                                            "coding": [
                                                {
                                                    "system": "http://uk-koeln.de/fhir/ValueSet/FollowUpStatus",
                                                    "code": "lebt"
                                                }
                                            ]
                                        }
                                    }
                                ]
                            },
                            "identifier": [
                                {
                                    "extension": [
                                        {
                                            "url": "http://hl7.org/fhir/StructureDefinition/data-absent-reason",
                                            "valueCode": "not-asked"
                                        }
                                    ]
                                }
                            ],
<<<<<<< master
<<<<<<< master
                            "id": "0ea3bde8-0fb5-472b-8cc0-437e96ca548c"
                        },
                        "request": {
                            "method": "PUT",
                            "url": "EpisodeOfCare/0ea3bde8-0fb5-472b-8cc0-437e96ca548c"
=======
                            "extension": [
                                {
                                    "url": "http://uk-koeln.de/fhir/StructureDefinition/Extension/nNGM/nngmErstdiagnose",
                                    "valueDateTime": "2020-10-10"
                                },
                                {
                                    "url": "http://uk-koeln.de/fhir/StructureDefinition/Extension/nNGM/abrechnungsinformation/letzterKontakt",
                                    "valueDateTime": "2020-10-10"
                                }
                            ],
                            "id": "bc861f2a-2f34-4cfd-9a1c-ad92dcdf9d56"
                        },
                        "request": {
                            "method": "PUT",
                            "url": "EpisodeOfCare/bc861f2a-2f34-4cfd-9a1c-ad92dcdf9d56"
>>>>>>> init
=======
                            "id": "0ea3bde8-0fb5-472b-8cc0-437e96ca548c"
                        },
                        "request": {
                            "method": "PUT",
                            "url": "EpisodeOfCare/0ea3bde8-0fb5-472b-8cc0-437e96ca548c"
>>>>>>> test data merge
                        }
                    },
                    {
                        "resource": {
                            "resourceType": "Consent",
                            "meta": {
                                "profile": [
                                    "http://uk-koeln.de/fhir/StructureDefinition/Consent/nNGM"
                                ]
                            },
                            "status": "active",
                            "scope": {
                                "coding": [
                                    {
                                        "system": "http://terminology.hl7.org/CodeSystem/consentscope",
                                        "code": "patient-privacy"
                                    }
                                ]
                            },
                            "category": [
                                {
                                    "coding": [
                                        {
                                            "system": "http://loinc.org",
                                            "code": "59284-0"
                                        }
                                    ]
                                }
                            ],
                            "patient": {
<<<<<<< master
<<<<<<< master
                                "reference": "http://localhost:4080/administration/Patient/620c7635-8810-48a7-843e-3b037aa860ae"
=======
                                "reference": "http://localhost:4080/administration/Patient/d5459b35-72c5-45e8-96df-c502c415554e"
>>>>>>> init
=======
                                "reference": "http://localhost:4080/administration/Patient/620c7635-8810-48a7-843e-3b037aa860ae"
>>>>>>> test data merge
                            },
                            "provision": {
                                "type": "permit"
                            },
                            "policyRule": {
                                "coding": [
                                    {
                                        "system": "http://uk-koeln.de/fhir/ValueSet/nngm/nngm-consent-policy",
                                        "code": "1a"
                                    }
                                ]
                            },
<<<<<<< master
<<<<<<< master
                            "dateTime": "2021-01-01",
                            "id": "82964a95-abed-4a54-ac54-4948a0e63ae0"
                        },
                        "request": {
                            "method": "PUT",
                            "url": "Consent/82964a95-abed-4a54-ac54-4948a0e63ae0"
=======
                            "dateTime": "2020-11-01",
                            "id": "1cb328ef-7699-4f50-bc37-41f37b579a2f"
                        },
                        "request": {
                            "method": "PUT",
                            "url": "Consent/1cb328ef-7699-4f50-bc37-41f37b579a2f"
>>>>>>> init
=======
                            "dateTime": "2021-01-01",
                            "id": "82964a95-abed-4a54-ac54-4948a0e63ae0"
                        },
                        "request": {
                            "method": "PUT",
                            "url": "Consent/82964a95-abed-4a54-ac54-4948a0e63ae0"
>>>>>>> test data merge
                        }
                    },
                    {
                        "resource": {
                            "resourceType": "Consent",
                            "meta": {
                                "profile": [
                                    "http://uk-koeln.de/fhir/StructureDefinition/Consent/nNGM"
                                ]
                            },
                            "status": "active",
                            "scope": {
                                "coding": [
                                    {
                                        "system": "http://terminology.hl7.org/CodeSystem/consentscope",
                                        "code": "patient-privacy"
                                    }
                                ]
                            },
                            "category": [
                                {
                                    "coding": [
                                        {
                                            "system": "http://loinc.org",
                                            "code": "59284-0"
                                        }
                                    ]
                                }
                            ],
                            "patient": {
<<<<<<< master
<<<<<<< master
                                "reference": "http://localhost:4080/administration/Patient/620c7635-8810-48a7-843e-3b037aa860ae"
=======
                                "reference": "http://localhost:4080/administration/Patient/d5459b35-72c5-45e8-96df-c502c415554e"
>>>>>>> init
=======
                                "reference": "http://localhost:4080/administration/Patient/620c7635-8810-48a7-843e-3b037aa860ae"
>>>>>>> test data merge
                            },
                            "provision": {
                                "type": "permit"
                            },
                            "policyRule": {
                                "coding": [
                                    {
                                        "system": "http://uk-koeln.de/fhir/ValueSet/nngm/nngm-consent-policy",
                                        "code": "1b"
                                    }
                                ]
                            },
<<<<<<< master
<<<<<<< master
=======
>>>>>>> test data merge
                            "dateTime": "2021-01-01",
                            "id": "091c943d-ddfc-48a7-941f-fd09f7a295a1"
                        },
                        "request": {
                            "method": "PUT",
                            "url": "Consent/091c943d-ddfc-48a7-941f-fd09f7a295a1"
                        }
                    }
                ],
                "id": "fe92827c-6db9-4c2c-a812-c11aa41fb3e7",
                "type": "transaction"
            }
        },
        {
            "resource": {
                "resourceType": "Bundle",
                "entry": [
                    {
                        "resource": {
                            "resourceType": "Composition",
                            "title": "Antrag",
                            "id": "9067051d-67e1-4662-acf1-a821768c077a",
                            "meta": {
                                "profile": [
                                    "http://uk-koeln.de/fhir/StructureDefinition/Composition/nNGM/Antrag-pseudonymisiert"
                                ]
                            },
                            "status": "final",
                            "identifier": {
                                "system": "http://uk-koeln.de/NamingSystem/nNGM/fallnummer",
                                "value": "1"
                            },
                            "type": {
                                "coding": [
                                    {
                                        "system": "http://uk-koeln.de/fhir/CodeSystem/nngm/compositions",
                                        "code": "antrag"
                                    }
                                ]
                            },
                            "category": [
                                {
                                    "coding": [
                                        {
                                            "system": "http://uk-koeln.de/fhir/CodeSystem/nngm/composition-category",
                                            "code": "idat"
                                        }
                                    ]
                                }
                            ],
                            "subject": {
                                "reference": "http://localhost:4080/administration/620c7635-8810-48a7-843e-3b037aa860ae",
                                "identifier": {
                                    "system": "http://uk-koeln.de/fhir/NamingSystem/nNGM/patient-identifier",
                                    "value": ""
                                }
                            },
                            "date": "2021-01-07T10:54:59+01:00",
                            "author": [
                                {
                                    "reference": "https://clinicalsite.org/person/38"
                                }
                            ],
                            "section": [
                                {
                                    "title": "basisangaben",
                                    "code": {
                                        "coding": [
                                            {
                                                "system": "http://uk-koeln.de/fhir/CodeSystem/nngm/sections",
                                                "code": "basisangaben"
                                            }
                                        ]
                                    },
                                    "entry": [
                                        {
                                            "reference": "http://localhost:4080/administration/Organization/0055f819-5a28-4626-a83f-a098aa9fac80"
                                        },
                                        {
                                            "reference": "http://localhost:4080/administration/ServiceRequest/b900b576-f7bf-4c32-bddf-5783fa560d5e"
                                        },
                                        {
                                            "reference": "http://localhost:4080/administration/Coverage/2b23f65d-25f0-48f7-9c03-cf009b11a645"
                                        },
                                        {
                                            "reference": "http://localhost:4080/administration/Observation/86eb51de-8138-422e-a7ca-0c497c2a6259"
                                        },
                                        {
                                            "reference": "http://localhost:4080/administration/Observation/50bb8c57-591d-4687-9039-c34bca3a4ed9"
                                        },
                                        {
                                            "reference": "http://localhost:4080/administration/Observation/8a8f7493-6c18-40bb-bd25-e48944cf4462"
                                        },
                                        {
                                            "reference": "http://localhost:4080/administration/Observation/5cf7f77b-678f-441f-b6ab-fb1f0fd7a9ba"
                                        },
                                        {
                                            "reference": "http://localhost:4080/administration/Practitioner/d7d69f9e-3c05-4d31-8a5f-569f8daceb39"
                                        },
                                        {
                                            "reference": "http://localhost:4080/administration/Consent/bcfefe27-d69d-4d65-8268-fe167b2fe79f"
                                        },
                                        {
                                            "reference": "http://localhost:4080/administration/Consent/d1f5a6ae-91fb-4417-92fc-b65fa3bec0f5"
                                        },
                                        {
                                            "reference": "http://localhost:4080/administration/Consent/9cf95bcf-5d2d-4a8b-8223-6a56e599236b"
                                        },
                                        {
                                            "reference": "http://localhost:4080/administration/Consent/9b851ad1-6538-42ee-bfab-c5ff15315e41"
                                        },
                                        {
                                            "reference": "http://localhost:4080/administration/Consent/6c2e8aa4-8d62-4e72-b910-bb431bd69541"
                                        },
                                        {
                                            "reference": "http://localhost:4080/administration/Consent/368ad519-af04-4cea-90f2-0bf9f2b6ff44"
                                        },
                                        {
                                            "reference": "http://localhost:4080/administration/Consent/6e14c356-e44e-4964-9434-71afbaeca57b"
                                        },
                                        {
                                            "reference": "http://localhost:4080/administration/Consent/863f46c3-fcdd-4c7a-a420-0130ac8b07d2"
                                        },
                                        {
                                            "reference": "http://localhost:4080/administration/Consent/934911e9-b35c-4388-8616-4db4529f5603"
                                        },
                                        {
                                            "reference": "http://localhost:4080/administration/Consent/0d41057c-a6ab-498c-8501-f09cc3103266"
                                        },
                                        {
                                            "reference": "http://localhost:4080/administration/Consent/61a78398-10d4-4865-95d1-937e976057bd"
                                        },
                                        {
                                            "reference": "http://localhost:4080/administration/Consent/0cb9f080-9089-444f-ac6d-6d563af609af"
                                        },
                                        {
                                            "reference": "http://localhost:4080/administration/Consent/9201b5db-a298-4cf1-8894-c2d26e00df00"
                                        },
                                        {
                                            "reference": "http://localhost:4080/administration/Consent/2f757581-bd15-4961-8763-d6f86d26468c"
                                        },
                                        {
                                            "reference": "http://localhost:4080/administration/Consent/717e4675-0ddb-4c6c-a4fb-935193750f1c"
                                        }
                                    ]
                                },
                                {
                                    "title": "biopsy",
                                    "code": {
                                        "coding": [
                                            {
                                                "system": "http://uk-koeln.de/fhir/CodeSystem/nngm/sections",
                                                "code": "biopsie"
                                            }
                                        ]
                                    },
                                    "entry": [
                                        {
                                            "identifier": {
                                                "system": "http://uk-koeln.de/NamingSystem/nNGM/formularId",
                                                "value": "1"
                                            }
                                        }
                                    ],
                                    "section": [
                                        {
                                            "title": "anforderung",
                                            "code": {
                                                "coding": [
                                                    {
                                                        "system": "http://uk-koeln.de/fhir/CodeSystem/nngm/sections",
                                                        "code": "anforderung"
                                                    }
                                                ]
                                            },
                                            "entry": [
                                                {
                                                    "reference": "http://localhost:4080/administration/ServiceRequest/5c45b8b0-08f7-4ee1-af09-02f0367be5a2"
                                                },
                                                {
                                                    "reference": "http://localhost:4080/administration/Observation/c31e9745-f0ad-479c-b0c2-b6bb41217200"
                                                },
                                                {
                                                    "reference": "http://localhost:4080/administration/Organization/e96fcbf7-fefa-4bcd-8338-461bbad8ce0d"
                                                }
                                            ]
                                        },
                                        {
                                            "title": "tnm",
                                            "code": {
                                                "coding": [
                                                    {
                                                        "system": "http://uk-koeln.de/fhir/CodeSystem/nngm/sections",
                                                        "code": "tnm"
                                                    }
                                                ]
                                            },
                                            "entry": [
                                                {
                                                    "reference": "http://localhost:4080/administration/Observation/7ef97554-dbab-4a47-a747-d2e32a381109"
                                                }
                                            ]
                                        }
                                    ]
                                },
                                {
                                    "title": "biopsy",
                                    "code": {
                                        "coding": [
                                            {
                                                "system": "http://uk-koeln.de/fhir/CodeSystem/nngm/sections",
                                                "code": "biopsie"
                                            }
                                        ]
                                    },
                                    "entry": [
                                        {
                                            "identifier": {
                                                "system": "http://uk-koeln.de/NamingSystem/nNGM/formularId",
                                                "value": "2"
                                            }
                                        }
                                    ],
                                    "section": [
                                        {
                                            "title": "anforderung",
                                            "code": {
                                                "coding": [
                                                    {
                                                        "system": "http://uk-koeln.de/fhir/CodeSystem/nngm/sections",
                                                        "code": "anforderung"
                                                    }
                                                ]
                                            },
                                            "entry": [
                                                {
                                                    "reference": "http://localhost:4080/administration/ServiceRequest/552f9267-6811-4983-8134-58ffe229448f"
                                                },
                                                {
                                                    "reference": "http://localhost:4080/administration/Observation/ca339653-b86a-4ab2-b71f-f07bc2e19967"
                                                }
                                            ]
                                        }
                                    ]
                                }
                            ]
                        }
                    },
                    {
                        "resource": {
                            "resourceType": "Organization",
                            "meta": {
                                "profile": [
                                    "http://clinicalsite.org/fhir/StructureDefinition/organizationalunit"
                                ]
                            },
                            "identifier": [
                                {
                                    "system": "http://healex.systems/fhir/NamingSystem/nNGMnetzwerkzentrumid",
                                    "value": "1344"
                                }
                            ],
                            "name": "Essen",
                            "contact": [
                                {
                                    "address": {
                                        "text": "Essen\r\n\r\nUniversitätsklinikum Essen\r\nHufelandstr. 55\r\n45147 Essen\r\n+49 (0) 201 723 50 70\r\n+49 (0) 201 723 16 14"
                                    }
                                }
                            ],
                            "id": "0055f819-5a28-4626-a83f-a098aa9fac80"
                        },
                        "request": {
                            "method": "PUT",
                            "url": "Organization/0055f819-5a28-4626-a83f-a098aa9fac80"
                        }
                    },
                    {
                        "resource": {
                            "resourceType": "ServiceRequest",
                            "meta": {
                                "profile": [
                                    "http://uk-koeln.de/fhir/StructureDefinition/ServiceRequest/nNGM/tumorboard"
                                ]
                            },
                            "status": "active",
                            "intent": "proposal",
                            "code": {
                                "coding": [
                                    {
                                        "system": "http://ncit.nci.nih.gov",
                                        "code": "C19165"
                                    }
                                ]
                            },
                            "requester": {
                                "reference": "http://localhost:4080/administration/",
                                "_reference": {
                                    "extension": [
                                        {
                                            "url": "http://hl7.org/fhir/StructureDefinition/data-absent-reason",
                                            "valueCode": "not-asked"
                                        }
                                    ]
                                },
                                "extension": [
                                    {
                                        "url": "http://uk-koeln.de/fhir/StructureDefinition/Extension/nNGM/vorstellung-tmb",
                                        "valueBoolean": true
                                    },
                                    {
                                        "url": "http://uk-koeln.de/fhir/StructureDefinition/Extension/nNGM/persoenlicheTeilnahme",
                                        "valueBoolean": false
                                    }
                                ]
                            },
                            "subject": {
                                "reference": "http://localhost:4080/administration/Patient/620c7635-8810-48a7-843e-3b037aa860ae"
                            },
                            "id": "b900b576-f7bf-4c32-bddf-5783fa560d5e",
                            "performer": [
                                {
                                    "reference": "http://localhost:4080/administration/Organization/0055f819-5a28-4626-a83f-a098aa9fac80"
                                }
                            ],
                            "authoredOn": "2020-01-01",
                            "encounter": {
                                "extension": [
                                    {
                                        "url": "http://uk-koeln.de/fhir/StructureDefinition/Extension/nNGM/aufenthaltsart",
                                        "valueCodeableConcept": {
                                            "coding": [
                                                {
                                                    "system": "http://uk-koeln.de/fhir/ValueSet/nngm/aufenthaltsart",
                                                    "code": "AMB",
                                                    "display": "ambulatory"
                                                }
                                            ]
                                        }
                                    }
                                ]
                            },
                            "reasonReference": [
                                {
                                    "reference": "http://localhost:4080/administration/Observation/8a8f7493-6c18-40bb-bd25-e48944cf4462"
                                },
                                {
                                    "reference": "http://localhost:4080/administration/Observation/50bb8c57-591d-4687-9039-c34bca3a4ed9"
                                },
                                {
                                    "reference": "http://localhost:4080/administration/Observation/86eb51de-8138-422e-a7ca-0c497c2a6259"
                                },
                                {
                                    "reference": "http://localhost:4080/administration/Observation/5cf7f77b-678f-441f-b6ab-fb1f0fd7a9ba"
                                }
                            ]
                        },
                        "request": {
                            "method": "PUT",
                            "url": "ServiceRequest/b900b576-f7bf-4c32-bddf-5783fa560d5e"
                        }
                    },
                    {
                        "resource": {
                            "resourceType": "Coverage",
                            "meta": {
                                "profile": [
                                    "http://uk-koeln.de/fhir/StructureDefinition/Coverage/nNGM"
                                ]
                            },
                            "status": "active",
                            "beneficiary": {
                                "reference": "http://localhost:4080/administration/Patient/620c7635-8810-48a7-843e-3b037aa860ae"
                            },
                            "payor": [
                                {
                                    "reference": "http://localhost:4080/administration/Organization/0055f819-5a28-4626-a83f-a098aa9fac80"
                                },
                                {
                                    "extension": [
                                        {
                                            "url": "http://uk-koeln.de/fhir/StructureDefinition/Extension/nNGM/abrechnungsinformation",
                                            "valueCodeableConcept": {
                                                "coding": [
                                                    {
                                                        "system": "http://uk-koeln.de/fhir/ValueSet/nngm/abrechnungsinformation",
                                                        "code": "nNGM-Fall stationär, nicht BV"
                                                    }
                                                ]
                                            }
                                        }
                                    ]
                                },
                                {
                                    "display": "BAHN-BKK"
                                }
                            ],
                            "type": {
                                "coding": [
                                    {
                                        "system": "http://uk-koeln.de/fhir/ValueSet/nngm/krankenkassen-typ",
                                        "code": "GKV"
                                    }
                                ]
                            },
                            "extension": [
                                {
                                    "url": "http://uk-koeln.de/fhir/StructureDefinition/Extension/nNGM/kooperationsvereinbarung",
                                    "valueBoolean": false
                                }
                            ],
                            "id": "2b23f65d-25f0-48f7-9c03-cf009b11a645"
                        },
                        "request": {
                            "method": "PUT",
                            "url": "Coverage/2b23f65d-25f0-48f7-9c03-cf009b11a645"
                        }
                    },
                    {
                        "resource": {
                            "resourceType": "Observation",
                            "meta": {
                                "profile": [
                                    "http://uk-koeln.de/fhir/StructureDefinition/Observation/nNGM/koerpergroesse"
                                ]
                            },
                            "status": "final",
                            "category": [
                                {
                                    "coding": [
                                        {
                                            "system": "http://terminology.hl7.org/CodeSystem/observation-category",
                                            "code": "vital-signs"
                                        }
                                    ]
                                }
                            ],
                            "code": {
                                "coding": [
                                    {
                                        "system": "http://loinc.org",
                                        "code": "8302-2"
                                    }
                                ]
                            },
                            "subject": {
                                "reference": "http://localhost:4080/administration/Patient/620c7635-8810-48a7-843e-3b037aa860ae"
                            },
                            "_effectiveDateTime": {
                                "extension": [
                                    {
                                        "url": "http://hl7.org/fhir/StructureDefinition/data-absent-reason",
                                        "valueCode": "not-asked"
                                    }
                                ]
                            },
                            "performer": [
                                {
                                    "reference": "http://localhost:4080/administration/Practitioner/d7d69f9e-3c05-4d31-8a5f-569f8daceb39"
                                },
                                {
                                    "reference": "http://localhost:4080/administration/Organization/0055f819-5a28-4626-a83f-a098aa9fac80"
                                }
                            ],
                            "valueQuantity": {
                                "system": "http://unitsofmeasure.org",
                                "unit": "centimeter",
                                "code": "cm",
                                "value": 180
                            },
                            "id": "86eb51de-8138-422e-a7ca-0c497c2a6259"
                        },
                        "request": {
                            "method": "PUT",
                            "url": "Observation/86eb51de-8138-422e-a7ca-0c497c2a6259"
                        }
                    },
                    {
                        "resource": {
                            "resourceType": "Observation",
                            "meta": {
                                "profile": [
                                    "http://uk-koeln.de/fhir/StructureDefinition/Observation/nNGM/koerpergewicht"
                                ]
                            },
                            "status": "final",
                            "category": [
                                {
                                    "coding": [
                                        {
                                            "system": "http://terminology.hl7.org/CodeSystem/observation-category",
                                            "code": "vital-signs"
                                        }
                                    ]
                                }
                            ],
                            "code": {
                                "coding": [
                                    {
                                        "system": "http://loinc.org",
                                        "code": "29463-7"
                                    }
                                ]
                            },
                            "subject": {
                                "reference": "http://localhost:4080/administration/Patient/620c7635-8810-48a7-843e-3b037aa860ae"
                            },
                            "_effectiveDateTime": {
                                "extension": [
                                    {
                                        "url": "http://hl7.org/fhir/StructureDefinition/data-absent-reason",
                                        "valueCode": "not-asked"
                                    }
                                ]
                            },
                            "performer": [
                                {
                                    "reference": "http://localhost:4080/administration/Practitioner/d7d69f9e-3c05-4d31-8a5f-569f8daceb39"
                                },
                                {
                                    "reference": "http://localhost:4080/administration/Organization/0055f819-5a28-4626-a83f-a098aa9fac80"
                                }
                            ],
                            "valueQuantity": {
                                "system": "http://unitsofmeasure.org",
                                "unit": "kilogram",
                                "code": "kg",
                                "value": 900.0
                            },
                            "id": "50bb8c57-591d-4687-9039-c34bca3a4ed9"
                        },
                        "request": {
                            "method": "PUT",
                            "url": "Observation/50bb8c57-591d-4687-9039-c34bca3a4ed9"
                        }
                    },
                    {
                        "resource": {
                            "resourceType": "Observation",
                            "meta": {
                                "profile": [
                                    "http://uk-koeln.de/fhir/StructureDefinition/Observation/nNGM/ecog"
                                ]
                            },
                            "status": "final",
                            "category": [
                                {
                                    "coding": [
                                        {
                                            "system": "http://hl7.org/fhir/ValueSet/observation-category",
                                            "code": "survey"
                                        }
                                    ]
                                }
                            ],
                            "code": {
                                "coding": [
                                    {
                                        "system": "http://loinc.org",
                                        "code": "89247-1"
                                    }
                                ]
                            },
                            "subject": {
                                "reference": "http://localhost:4080/administration/Patient/620c7635-8810-48a7-843e-3b037aa860ae"
                            },
                            "performer": [
                                {
                                    "reference": "http://localhost:4080/administration/Practitioner/d7d69f9e-3c05-4d31-8a5f-569f8daceb39"
                                },
                                {
                                    "reference": "http://localhost:4080/administration/Organization/0055f819-5a28-4626-a83f-a098aa9fac80"
                                }
                            ],
                            "valueCodeableConcept": {
                                "coding": [
                                    {
                                        "system": "http://uk-koeln.de/fhir/ValueSet/ecog",
                                        "code": "0",
                                        "display": "0 - normale, uneingeschränkte Aktivität, wie vor der Erkrankung"
                                    }
                                ]
                            },
                            "id": "8a8f7493-6c18-40bb-bd25-e48944cf4462"
                        },
                        "request": {
                            "method": "PUT",
                            "url": "Observation/8a8f7493-6c18-40bb-bd25-e48944cf4462"
                        }
                    },
                    {
                        "resource": {
                            "resourceType": "Observation",
                            "meta": {
                                "profile": [
                                    "http://uk-koeln.de/fhir/StructureDefinition/Observation/nNGM/raucherstatus"
                                ]
                            },
                            "status": "final",
                            "category": [
                                {
                                    "coding": [
                                        {
                                            "system": "http://hl7.org/fhir/observation-category",
                                            "code": "social-history"
                                        }
                                    ]
                                }
                            ],
                            "code": {
                                "coding": [
                                    {
                                        "system": "http://loinc.org",
                                        "code": "72166-2"
                                    }
                                ]
                            },
                            "subject": {
                                "reference": "http://localhost:4080/administration/Patient/620c7635-8810-48a7-843e-3b037aa860ae"
                            },
                            "performer": [
                                {
                                    "reference": "http://localhost:4080/administration/Practitioner/d7d69f9e-3c05-4d31-8a5f-569f8daceb39"
                                },
                                {
                                    "reference": "http://localhost:4080/administration/Organization/0055f819-5a28-4626-a83f-a098aa9fac80"
                                }
                            ],
                            "valueCodeableConcept": {
                                "coding": [
                                    {
                                        "system": "http://uk-koeln.de/fhir/ValueSet/nngm/raucherstatus",
                                        "code": "LA15920-4",
                                        "display": "Former smoker"
                                    }
                                ]
                            },
                            "component": [
                                {
                                    "code": {
                                        "text": "Nichtraucher Seit",
                                        "coding": [
                                            {
                                                "system": "http://ncit.nci.nih.gov",
                                                "code": "C127065"
                                            }
                                        ]
                                    },
                                    "valueDateTime": "2020-01-01"
                                },
                                {
                                    "code": {
                                        "text": "Packungen Pro Jahr",
                                        "coding": [
                                            {
                                                "system": "http://ncit.nci.nih.gov",
                                                "code": "C127065"
                                            }
                                        ]
                                    },
                                    "valueQuantity": {
                                        "unit": "pack years",
                                        "system": "http://unitsofmeasure.org",
                                        "code": "{PackYears}",
                                        "value": 20
                                    }
                                }
                            ],
                            "id": "5cf7f77b-678f-441f-b6ab-fb1f0fd7a9ba"
                        },
                        "request": {
                            "method": "PUT",
                            "url": "Observation/5cf7f77b-678f-441f-b6ab-fb1f0fd7a9ba"
                        }
                    },
                    {
                        "resource": {
                            "resourceType": "Practitioner",
                            "meta": {
                                "profile": [
                                    "http://uk-koeln.de/fhir/StructureDefinition/Practitioner/nNGM"
                                ]
                            },
                            "name": [
                                {
                                    "extension": [
                                        {
                                            "url": "http://hl7.org/fhir/StructureDefinition/data-absent-reason",
                                            "valueCode": "not-asked"
                                        }
                                    ]
                                }
                            ],
                            "telecom": [
                                {
                                    "system": "email",
                                    "value": "foo@bar.com"
                                }
                            ],
                            "identifier": [
                                {
                                    "system": "http://uk-koeln.de/NamingSystem/nNGM/practitionerId",
                                    "value": "230198321"
                                }
                            ],
                            "address": [
                                {
                                    "text": "Kontakt zum nNGM Netzwerkpartner"
                                }
                            ],
                            "id": "d7d69f9e-3c05-4d31-8a5f-569f8daceb39"
                        },
                        "request": {
                            "method": "PUT",
                            "url": "Practitioner/d7d69f9e-3c05-4d31-8a5f-569f8daceb39"
                        }
                    },
                    {
                        "resource": {
                            "resourceType": "Consent",
                            "meta": {
                                "profile": [
                                    "http://uk-koeln.de/fhir/StructureDefinition/Consent/nNGM"
                                ]
                            },
                            "status": "active",
                            "scope": {
                                "coding": [
                                    {
                                        "system": "http://terminology.hl7.org/CodeSystem/consentscope",
                                        "code": "patient-privacy"
                                    }
                                ]
                            },
                            "category": [
                                {
                                    "coding": [
                                        {
                                            "system": "http://loinc.org",
                                            "code": "59284-0"
                                        }
                                    ]
                                }
                            ],
                            "patient": {
                                "reference": "http://localhost:4080/administration/Patient/620c7635-8810-48a7-843e-3b037aa860ae"
                            },
                            "performer": [
                                {
                                    "reference": "http://localhost:4080/administration/Organization/0055f819-5a28-4626-a83f-a098aa9fac80"
                                }
                            ],
                            "provision": {
                                "type": "permit"
                            },
                            "policyRule": {
                                "coding": [
                                    {
                                        "system": "http://uk-koeln.de/fhir/ValueSet/nngm/nngm-consent-policy",
                                        "code": "TE"
                                    }
                                ]
                            },
                            "dateTime": "2020-03-01",
                            "id": "bcfefe27-d69d-4d65-8268-fe167b2fe79f"
                        },
                        "request": {
                            "method": "PUT",
                            "url": "Consent/bcfefe27-d69d-4d65-8268-fe167b2fe79f"
                        }
                    },
                    {
                        "resource": {
                            "resourceType": "Consent",
                            "meta": {
                                "profile": [
                                    "http://uk-koeln.de/fhir/StructureDefinition/Consent/nNGM"
                                ]
                            },
                            "status": "active",
                            "scope": {
                                "coding": [
                                    {
                                        "system": "http://terminology.hl7.org/CodeSystem/consentscope",
                                        "code": "patient-privacy"
                                    }
                                ]
                            },
                            "category": [
                                {
                                    "coding": [
                                        {
                                            "system": "http://loinc.org",
                                            "code": "59284-0"
                                        }
                                    ]
                                }
                            ],
                            "patient": {
                                "reference": "http://localhost:4080/administration/Patient/620c7635-8810-48a7-843e-3b037aa860ae"
                            },
                            "performer": [
                                {
                                    "reference": "http://localhost:4080/administration/Organization/0055f819-5a28-4626-a83f-a098aa9fac80"
                                }
                            ],
                            "provision": {
                                "type": "deny"
                            },
                            "policyRule": {
                                "coding": [
                                    {
                                        "system": "http://uk-koeln.de/fhir/ValueSet/nngm/nngm-consent-policy",
                                        "code": "DS"
                                    }
                                ]
                            },
                            "id": "d1f5a6ae-91fb-4417-92fc-b65fa3bec0f5"
                        },
                        "request": {
                            "method": "PUT",
                            "url": "Consent/d1f5a6ae-91fb-4417-92fc-b65fa3bec0f5"
                        }
                    },
                    {
                        "resource": {
                            "resourceType": "Consent",
                            "meta": {
                                "profile": [
                                    "http://uk-koeln.de/fhir/StructureDefinition/Consent/nNGM"
                                ]
                            },
                            "status": "active",
                            "scope": {
                                "coding": [
                                    {
                                        "system": "http://terminology.hl7.org/CodeSystem/consentscope",
                                        "code": "patient-privacy"
                                    }
                                ]
                            },
                            "category": [
                                {
                                    "coding": [
                                        {
                                            "system": "http://loinc.org",
                                            "code": "59284-0"
                                        }
                                    ]
                                }
                            ],
                            "patient": {
                                "reference": "http://localhost:4080/administration/Patient/620c7635-8810-48a7-843e-3b037aa860ae"
                            },
                            "performer": [
                                {
                                    "reference": "http://localhost:4080/administration/Organization/0055f819-5a28-4626-a83f-a098aa9fac80"
                                }
                            ],
                            "provision": {
                                "type": "permit"
                            },
                            "policyRule": {
                                "coding": [
                                    {
                                        "system": "http://uk-koeln.de/fhir/ValueSet/nngm/nngm-consent-policy",
                                        "code": "1a"
                                    }
                                ]
                            },
                            "dateTime": "2020-01-01",
                            "id": "9cf95bcf-5d2d-4a8b-8223-6a56e599236b"
                        },
                        "request": {
                            "method": "PUT",
                            "url": "Consent/9cf95bcf-5d2d-4a8b-8223-6a56e599236b"
                        }
                    },
                    {
                        "resource": {
                            "resourceType": "Consent",
                            "meta": {
                                "profile": [
                                    "http://uk-koeln.de/fhir/StructureDefinition/Consent/nNGM"
                                ]
                            },
                            "status": "active",
                            "scope": {
                                "coding": [
                                    {
                                        "system": "http://terminology.hl7.org/CodeSystem/consentscope",
                                        "code": "patient-privacy"
                                    }
                                ]
                            },
                            "category": [
                                {
                                    "coding": [
                                        {
                                            "system": "http://loinc.org",
                                            "code": "59284-0"
                                        }
                                    ]
                                }
                            ],
                            "patient": {
                                "reference": "http://localhost:4080/administration/Patient/620c7635-8810-48a7-843e-3b037aa860ae"
                            },
                            "performer": [
                                {
                                    "reference": "http://localhost:4080/administration/Organization/0055f819-5a28-4626-a83f-a098aa9fac80"
                                }
                            ],
                            "provision": {
                                "type": "permit"
                            },
                            "policyRule": {
                                "coding": [
                                    {
                                        "system": "http://uk-koeln.de/fhir/ValueSet/nngm/nngm-consent-policy",
                                        "code": "1b"
                                    }
                                ]
                            },
                            "dateTime": "2020-02-01",
                            "id": "9b851ad1-6538-42ee-bfab-c5ff15315e41"
                        },
                        "request": {
                            "method": "PUT",
                            "url": "Consent/9b851ad1-6538-42ee-bfab-c5ff15315e41"
                        }
                    },
                    {
                        "resource": {
                            "resourceType": "Consent",
                            "meta": {
                                "profile": [
                                    "http://uk-koeln.de/fhir/StructureDefinition/Consent/nNGM"
                                ]
                            },
                            "status": "active",
                            "scope": {
                                "coding": [
                                    {
                                        "system": "http://terminology.hl7.org/CodeSystem/consentscope",
                                        "code": "patient-privacy"
                                    }
                                ]
                            },
                            "category": [
                                {
                                    "coding": [
                                        {
                                            "system": "http://loinc.org",
                                            "code": "59284-0"
                                        }
                                    ]
                                }
                            ],
                            "patient": {
                                "reference": "http://localhost:4080/administration/Patient/620c7635-8810-48a7-843e-3b037aa860ae"
                            },
                            "performer": [
                                {
                                    "reference": "http://localhost:4080/administration/Organization/0055f819-5a28-4626-a83f-a098aa9fac80"
                                }
                            ],
                            "provision": {
                                "type": "deny"
                            },
                            "policyRule": {
                                "coding": [
                                    {
                                        "system": "http://uk-koeln.de/fhir/ValueSet/nngm/nngm-consent-policy",
                                        "code": "2"
                                    }
                                ]
                            },
                            "id": "6c2e8aa4-8d62-4e72-b910-bb431bd69541"
                        },
                        "request": {
                            "method": "PUT",
                            "url": "Consent/6c2e8aa4-8d62-4e72-b910-bb431bd69541"
                        }
                    },
                    {
                        "resource": {
                            "resourceType": "Consent",
                            "meta": {
                                "profile": [
                                    "http://uk-koeln.de/fhir/StructureDefinition/Consent/nNGM"
                                ]
                            },
                            "status": "active",
                            "scope": {
                                "coding": [
                                    {
                                        "system": "http://terminology.hl7.org/CodeSystem/consentscope",
                                        "code": "patient-privacy"
                                    }
                                ]
                            },
                            "category": [
                                {
                                    "coding": [
                                        {
                                            "system": "http://loinc.org",
                                            "code": "59284-0"
                                        }
                                    ]
                                }
                            ],
                            "patient": {
                                "reference": "http://localhost:4080/administration/Patient/620c7635-8810-48a7-843e-3b037aa860ae"
                            },
                            "provision": {
                                "type": "deny"
                            },
                            "policyRule": {
                                "coding": [
                                    {
                                        "system": "http://uk-koeln.de/fhir/ValueSet/nngm/nngm-consent-policy",
                                        "code": "MD"
                                    }
                                ]
                            },
                            "id": "368ad519-af04-4cea-90f2-0bf9f2b6ff44",
                            "performer": [
                                {
                                    "reference": "http://localhost:4080/administration/Organization/0055f819-5a28-4626-a83f-a098aa9fac80"
                                }
                            ]
                        },
                        "request": {
                            "method": "PUT",
                            "url": "Consent/368ad519-af04-4cea-90f2-0bf9f2b6ff44"
                        }
                    },
                    {
                        "resource": {
                            "resourceType": "Consent",
                            "meta": {
                                "profile": [
                                    "http://uk-koeln.de/fhir/StructureDefinition/Consent/nNGM"
                                ]
                            },
                            "status": "active",
                            "scope": {
                                "coding": [
                                    {
                                        "system": "http://terminology.hl7.org/CodeSystem/consentscope",
                                        "code": "patient-privacy"
                                    }
                                ]
                            },
                            "category": [
                                {
                                    "coding": [
                                        {
                                            "system": "http://loinc.org",
                                            "code": "59284-0"
                                        }
                                    ]
                                }
                            ],
                            "patient": {
                                "reference": "http://localhost:4080/administration/Patient/620c7635-8810-48a7-843e-3b037aa860ae"
                            },
                            "provision": {
                                "type": "permit"
                            },
                            "policyRule": {
                                "coding": [
                                    {
                                        "system": "http://uk-koeln.de/fhir/ValueSet/nngm/nngm-consent-policy",
                                        "code": "ST"
                                    }
                                ]
                            },
                            "dateTime": "2020-04-01",
                            "id": "6e14c356-e44e-4964-9434-71afbaeca57b",
                            "performer": [
                                {
                                    "reference": "http://localhost:4080/administration/Organization/0055f819-5a28-4626-a83f-a098aa9fac80"
                                }
                            ]
                        },
                        "request": {
                            "method": "PUT",
                            "url": "Consent/6e14c356-e44e-4964-9434-71afbaeca57b"
                        }
                    },
                    {
                        "resource": {
                            "resourceType": "Consent",
                            "meta": {
                                "profile": [
                                    "http://uk-koeln.de/fhir/StructureDefinition/Consent/nNGM"
                                ]
                            },
                            "status": "active",
                            "scope": {
                                "coding": [
                                    {
                                        "system": "http://terminology.hl7.org/CodeSystem/consentscope",
                                        "code": "patient-privacy"
                                    }
                                ]
                            },
                            "category": [
                                {
                                    "coding": [
                                        {
                                            "system": "http://loinc.org",
                                            "code": "59284-0"
                                        }
                                    ]
                                }
                            ],
                            "patient": {
                                "reference": "http://localhost:4080/administration/Patient/620c7635-8810-48a7-843e-3b037aa860ae"
                            },
                            "provision": {
                                "type": "deny"
                            },
                            "policyRule": {
                                "coding": [
                                    {
                                        "system": "http://uk-koeln.de/fhir/ValueSet/nngm/nngm-consent-policy",
                                        "code": "WPI"
                                    }
                                ]
                            },
                            "id": "863f46c3-fcdd-4c7a-a420-0130ac8b07d2",
                            "performer": [
                                {
                                    "reference": "http://localhost:4080/administration/Organization/0055f819-5a28-4626-a83f-a098aa9fac80"
                                }
                            ]
                        },
                        "request": {
                            "method": "PUT",
                            "url": "Consent/863f46c3-fcdd-4c7a-a420-0130ac8b07d2"
                        }
                    },
                    {
                        "resource": {
                            "resourceType": "Consent",
                            "meta": {
                                "profile": [
                                    "http://uk-koeln.de/fhir/StructureDefinition/Consent/nNGM"
                                ]
                            },
                            "status": "active",
                            "scope": {
                                "coding": [
                                    {
                                        "system": "http://terminology.hl7.org/CodeSystem/consentscope",
                                        "code": "patient-privacy"
                                    }
                                ]
                            },
                            "category": [
                                {
                                    "coding": [
                                        {
                                            "system": "http://loinc.org",
                                            "code": "59284-0"
                                        }
                                    ]
                                }
                            ],
                            "patient": {
                                "reference": "http://localhost:4080/administration/Patient/620c7635-8810-48a7-843e-3b037aa860ae"
                            },
                            "provision": {
                                "type": "permit"
                            },
                            "policyRule": {
                                "coding": [
                                    {
                                        "system": "http://uk-koeln.de/fhir/ValueSet/nngm/nngm-consent-policy",
                                        "code": "WP"
                                    }
                                ]
                            },
                            "dateTime": "2020-05-01",
                            "id": "934911e9-b35c-4388-8616-4db4529f5603",
                            "performer": [
                                {
                                    "reference": "http://localhost:4080/administration/Organization/0055f819-5a28-4626-a83f-a098aa9fac80"
                                }
                            ]
                        },
                        "request": {
                            "method": "PUT",
                            "url": "Consent/934911e9-b35c-4388-8616-4db4529f5603"
                        }
                    },
                    {
                        "resource": {
                            "resourceType": "Consent",
                            "meta": {
                                "profile": [
                                    "http://uk-koeln.de/fhir/StructureDefinition/Consent/nNGM"
                                ]
                            },
                            "status": "active",
                            "scope": {
                                "coding": [
                                    {
                                        "system": "http://terminology.hl7.org/CodeSystem/consentscope",
                                        "code": "patient-privacy"
                                    }
                                ]
                            },
                            "category": [
                                {
                                    "coding": [
                                        {
                                            "system": "http://loinc.org",
                                            "code": "59284-0"
                                        }
                                    ]
                                }
                            ],
                            "patient": {
                                "reference": "http://localhost:4080/administration/Patient/620c7635-8810-48a7-843e-3b037aa860ae"
                            },
                            "provision": {
                                "type": "permit"
                            },
                            "policyRule": {
                                "coding": [
                                    {
                                        "system": "http://uk-koeln.de/fhir/ValueSet/nngm/nngm-consent-policy",
                                        "code": "WD"
                                    }
                                ]
                            },
                            "dateTime": "2020-06-01",
                            "id": "0d41057c-a6ab-498c-8501-f09cc3103266",
                            "performer": [
                                {
                                    "reference": "http://localhost:4080/administration/Organization/0055f819-5a28-4626-a83f-a098aa9fac80"
                                }
                            ]
                        },
                        "request": {
                            "method": "PUT",
                            "url": "Consent/0d41057c-a6ab-498c-8501-f09cc3103266"
                        }
                    },
                    {
                        "resource": {
                            "resourceType": "Consent",
                            "meta": {
                                "profile": [
                                    "http://uk-koeln.de/fhir/StructureDefinition/Consent/nNGM"
                                ]
                            },
                            "status": "active",
                            "scope": {
                                "coding": [
                                    {
                                        "system": "http://terminology.hl7.org/CodeSystem/consentscope",
                                        "code": "patient-privacy"
                                    }
                                ]
                            },
                            "category": [
                                {
                                    "coding": [
                                        {
                                            "system": "http://loinc.org",
                                            "code": "59284-0"
                                        }
                                    ]
                                }
                            ],
                            "patient": {
                                "reference": "http://localhost:4080/administration/Patient/620c7635-8810-48a7-843e-3b037aa860ae"
                            },
                            "provision": {
                                "type": "permit"
                            },
                            "policyRule": {
                                "coding": [
                                    {
                                        "system": "http://uk-koeln.de/fhir/ValueSet/nngm/nngm-consent-policy",
                                        "code": "WR"
                                    }
                                ]
                            },
                            "dateTime": "2020-07-01",
                            "id": "61a78398-10d4-4865-95d1-937e976057bd",
                            "performer": [
                                {
                                    "reference": "http://localhost:4080/administration/Organization/0055f819-5a28-4626-a83f-a098aa9fac80"
                                }
                            ]
                        },
                        "request": {
                            "method": "PUT",
                            "url": "Consent/61a78398-10d4-4865-95d1-937e976057bd"
                        }
                    },
                    {
                        "resource": {
                            "resourceType": "Consent",
                            "meta": {
                                "profile": [
                                    "http://uk-koeln.de/fhir/StructureDefinition/Consent/nNGM"
                                ]
                            },
                            "status": "active",
                            "scope": {
                                "coding": [
                                    {
                                        "system": "http://terminology.hl7.org/CodeSystem/consentscope",
                                        "code": "patient-privacy"
                                    }
                                ]
                            },
                            "category": [
                                {
                                    "coding": [
                                        {
                                            "system": "http://loinc.org",
                                            "code": "59284-0"
                                        }
                                    ]
                                }
                            ],
                            "patient": {
                                "reference": "http://localhost:4080/administration/Patient/620c7635-8810-48a7-843e-3b037aa860ae"
                            },
                            "provision": {
                                "type": "deny"
                            },
                            "policyRule": {
                                "coding": [
                                    {
                                        "system": "http://uk-koeln.de/fhir/ValueSet/nngm/nngm-consent-policy",
                                        "code": "WPK"
                                    }
                                ]
                            },
                            "id": "0cb9f080-9089-444f-ac6d-6d563af609af",
                            "performer": [
                                {
                                    "reference": "http://localhost:4080/administration/Organization/0055f819-5a28-4626-a83f-a098aa9fac80"
                                }
                            ]
                        },
                        "request": {
                            "method": "PUT",
                            "url": "Consent/0cb9f080-9089-444f-ac6d-6d563af609af"
                        }
                    },
                    {
                        "resource": {
                            "resourceType": "Consent",
                            "meta": {
                                "profile": [
                                    "http://uk-koeln.de/fhir/StructureDefinition/Consent/nNGM"
                                ]
                            },
                            "status": "active",
                            "scope": {
                                "coding": [
                                    {
                                        "system": "http://terminology.hl7.org/CodeSystem/consentscope",
                                        "code": "patient-privacy"
                                    }
                                ]
                            },
                            "category": [
                                {
                                    "coding": [
                                        {
                                            "system": "http://loinc.org",
                                            "code": "59284-0"
                                        }
                                    ]
                                }
                            ],
                            "patient": {
                                "reference": "http://localhost:4080/administration/Patient/620c7635-8810-48a7-843e-3b037aa860ae"
                            },
                            "provision": {
                                "type": "permit"
                            },
                            "policyRule": {
                                "coding": [
                                    {
                                        "system": "http://uk-koeln.de/fhir/ValueSet/nngm/nngm-consent-policy",
                                        "code": "WK"
                                    }
                                ]
                            },
                            "dateTime": "2020-08-01",
                            "id": "9201b5db-a298-4cf1-8894-c2d26e00df00",
                            "performer": [
                                {
                                    "reference": "http://localhost:4080/administration/Organization/0055f819-5a28-4626-a83f-a098aa9fac80"
                                }
                            ]
                        },
                        "request": {
                            "method": "PUT",
                            "url": "Consent/9201b5db-a298-4cf1-8894-c2d26e00df00"
                        }
                    },
                    {
                        "resource": {
                            "resourceType": "Consent",
                            "meta": {
                                "profile": [
                                    "http://uk-koeln.de/fhir/StructureDefinition/Consent/nNGM"
                                ]
                            },
                            "status": "active",
                            "scope": {
                                "coding": [
                                    {
                                        "system": "http://terminology.hl7.org/CodeSystem/consentscope",
                                        "code": "patient-privacy"
                                    }
                                ]
                            },
                            "category": [
                                {
                                    "coding": [
                                        {
                                            "system": "http://loinc.org",
                                            "code": "59284-0"
                                        }
                                    ]
                                }
                            ],
                            "patient": {
                                "reference": "http://localhost:4080/administration/Patient/620c7635-8810-48a7-843e-3b037aa860ae"
                            },
                            "provision": {
                                "type": "permit"
                            },
                            "policyRule": {
                                "coding": [
                                    {
                                        "system": "http://uk-koeln.de/fhir/ValueSet/nngm/nngm-consent-policy",
                                        "code": "KW"
                                    }
                                ]
                            },
                            "dateTime": "2020-09-01",
                            "id": "2f757581-bd15-4961-8763-d6f86d26468c",
                            "performer": [
                                {
                                    "reference": "http://localhost:4080/administration/Organization/0055f819-5a28-4626-a83f-a098aa9fac80"
                                }
                            ]
                        },
                        "request": {
                            "method": "PUT",
                            "url": "Consent/2f757581-bd15-4961-8763-d6f86d26468c"
                        }
                    },
                    {
                        "resource": {
                            "resourceType": "Consent",
                            "meta": {
                                "profile": [
                                    "http://uk-koeln.de/fhir/StructureDefinition/Consent/nNGM"
                                ]
                            },
                            "status": "active",
                            "scope": {
                                "coding": [
                                    {
                                        "system": "http://terminology.hl7.org/CodeSystem/consentscope",
                                        "code": "patient-privacy"
                                    }
                                ]
                            },
                            "category": [
                                {
                                    "coding": [
                                        {
                                            "system": "http://loinc.org",
                                            "code": "59284-0"
                                        }
                                    ]
                                }
                            ],
                            "patient": {
                                "reference": "http://localhost:4080/administration/Patient/620c7635-8810-48a7-843e-3b037aa860ae"
                            },
                            "provision": {
                                "type": "deny"
                            },
                            "policyRule": {
                                "coding": [
                                    {
                                        "system": "http://uk-koeln.de/fhir/ValueSet/nngm/nngm-consent-policy",
                                        "code": "KE"
                                    }
                                ]
                            },
                            "id": "717e4675-0ddb-4c6c-a4fb-935193750f1c",
                            "performer": [
                                {
                                    "reference": "http://localhost:4080/administration/Organization/0055f819-5a28-4626-a83f-a098aa9fac80"
                                }
                            ]
                        },
                        "request": {
                            "method": "PUT",
                            "url": "Consent/717e4675-0ddb-4c6c-a4fb-935193750f1c"
                        }
                    },
                    {
                        "resource": {
                            "resourceType": "ServiceRequest",
                            "meta": {
                                "profile": [
                                    "http://uk-koeln.de/fhir/StructureDefinition/ServiceRequest/nNGM/tumorblock"
                                ]
                            },
                            "subject": {
                                "reference": "http://localhost:4080/administration/Patient/620c7635-8810-48a7-843e-3b037aa860ae"
                            },
                            "status": "active",
                            "intent": "proposal",
                            "code": {
                                "coding": [
                                    {
                                        "system": "http://uk-koeln.de/fhir/ValueSet/nngm/anforderung-code",
                                        "code": "Einzeluntersuchung"
                                    }
                                ]
                            },
                            "category": [
                                {
                                    "coding": [
                                        {
                                            "system": "http://uk-koeln.de/fhir/ValueSet/nngm/anforderung-kategorie",
                                            "code": "C12801",
                                            "display": "Gewebediagnostik"
                                        }
                                    ]
                                }
                            ],
                            "reasonReference": [
                                {
                                    "reference": "http://localhost:4080/administration/Observation/c31e9745-f0ad-479c-b0c2-b6bb41217200"
                                }
                            ],
                            "orderDetail": [
                                {
                                    "coding": [
                                        {
                                            "system": "http://uk-koeln.de/fhir/ValueSet/nngm/anforderung-orderDetails",
                                            "code": "C128554",
                                            "display": "PD-L1"
                                        }
                                    ]
                                },
                                {
                                    "coding": [
                                        {
                                            "system": "http://uk-koeln.de/fhir/ValueSet/nngm/anforderung-orderDetails",
                                            "code": "C38184",
                                            "display": "ALK"
                                        }
                                    ]
                                },
                                {
                                    "coding": [
                                        {
                                            "system": "http://uk-koeln.de/fhir/ValueSet/nngm/anforderung-orderDetails",
                                            "code": "C148329",
                                            "display": "MET1"
                                        }
                                    ]
                                },
                                {
                                    "coding": [
                                        {
                                            "system": "http://uk-koeln.de/fhir/ValueSet/nngm/anforderung-orderDetails",
                                            "code": "C18399",
                                            "display": "ROS1"
                                        }
                                    ]
                                },
                                {
                                    "coding": [
                                        {
                                            "system": "http://uk-koeln.de/fhir/ValueSet/nngm/anforderung-orderDetails",
                                            "code": "C18363",
                                            "display": "BRAF"
                                        }
                                    ]
                                },
                                {
                                    "coding": [
                                        {
                                            "system": "http://uk-koeln.de/fhir/ValueSet/nngm/anforderung-orderDetails",
                                            "code": "C17757",
                                            "display": "EGFR"
                                        }
                                    ]
                                },
                                {
                                    "coding": [
                                        {
                                            "system": "http://uk-koeln.de/fhir/ValueSet/nngm/anforderung-orderDetails",
                                            "code": "C25785",
                                            "display": "KRAS"
                                        }
                                    ]
                                }
                            ],
                            "performer": [
                                {
                                    "display": "Grüß Gott",
                                    "reference": "http://localhost:4080/administration/Grüß Gott"
                                }
                            ],
                            "doNotPerform": false,
                            "extension": [
                                {
                                    "url": "http://uk-koeln.de/fhir/StructureDefinition/Extension/nNGM/grundEntfallBlockAnforderung",
                                    "valueCodeableConcept": {
                                        "coding": [
                                            {
                                                "system": "http://uk-koeln.de/fhir/ValueSet/nngm/grundEntfallBlockAnforderung",
                                                "code": "innerePathologie"
                                            }
                                        ]
                                    }
                                }
                            ],
                            "id": "5c45b8b0-08f7-4ee1-af09-02f0367be5a2",
                            "requester": {
                                "reference": "http://localhost:4080/administration/Organization/e96fcbf7-fefa-4bcd-8338-461bbad8ce0d"
                            }
                        },
                        "request": {
                            "method": "PUT",
                            "url": "ServiceRequest/5c45b8b0-08f7-4ee1-af09-02f0367be5a2"
                        }
                    },
                    {
                        "resource": {
                            "resourceType": "Observation",
                            "meta": {
                                "profile": [
                                    "http://uk-koeln.de/fhir/StructureDefinition/Observation/nNGM/histo-vorbefund"
                                ]
                            },
                            "subject": {
                                "reference": "http://localhost:4080/administration/Patient/620c7635-8810-48a7-843e-3b037aa860ae"
                            },
                            "status": "final",
                            "category": [
                                {
                                    "coding": [
                                        {
                                            "system": "http://hl7.org/fhir/observation-category",
                                            "code": "laboratory"
                                        }
                                    ]
                                }
                            ],
                            "code": {
                                "coding": [
                                    {
                                        "system": "http://ncit.nci.nih.gov",
                                        "code": "C19165"
                                    }
                                ]
                            },
                            "valueCodeableConcept": {
                                "coding": [
                                    {
                                        "system": "http://uk-koeln.de/fhir/ValueSet/nngm/histologie-klassifikation",
                                        "code": "8072/3",
                                        "display": "8072/3"
                                    }
                                ]
                            },
                            "id": "c31e9745-f0ad-479c-b0c2-b6bb41217200"
                        },
                        "request": {
                            "method": "PUT",
                            "url": "Observation/c31e9745-f0ad-479c-b0c2-b6bb41217200"
                        }
                    },
                    {
                        "resource": {
                            "resourceType": "Organization",
                            "meta": {
                                "profile": [
                                    "http://clinicalsite.org/fhir/StructureDefinition/organizationalunit"
                                ]
                            },
                            "address": [
                                {
                                    "use": "work",
                                    "type": "postal"
                                },
                                {
                                    "text": "FA für Pathologie H. Günzl,\r\nEppendorfer Weg 111,\r\n20259 Hamburg"
                                }
                            ],
                            "name": "FA für Pathologie H. Günzl",
                            "id": "e96fcbf7-fefa-4bcd-8338-461bbad8ce0d"
                        },
                        "request": {
                            "method": "PUT",
                            "url": "Organization/e96fcbf7-fefa-4bcd-8338-461bbad8ce0d"
                        }
                    },
                    {
                        "resource": {
                            "resourceType": "Observation",
                            "meta": {
                                "profile": [
                                    "http://uk-koeln.de/fhir/StructureDefinition/Observation/nNGM/tumorstadium"
                                ]
                            },
                            "status": "final",
                            "category": [
                                {
                                    "coding": [
                                        {
                                            "system": "http://hl7.org/fhir/observation-category",
                                            "code": "survey"
                                        }
                                    ]
                                }
                            ],
                            "code": {
                                "coding": [
                                    {
                                        "system": "http://uk-koeln.de/fhir/ValueSet/cancer-base/tnm-art",
                                        "_code": {
                                            "extension": [
                                                {
                                                    "url": "http://hl7.org/fhir/StructureDefinition/data-absent-reason",
                                                    "valueCode": "not-asked"
                                                }
                                            ]
                                        }
                                    }
                                ]
                            },
                            "subject": {
                                "reference": "http://localhost:4080/administration/Patient/620c7635-8810-48a7-843e-3b037aa860ae"
                            },
                            "extension": [
                                {
                                    "url": "http://uk-koeln.de/fhir/StructureDefinition/Extension/nngm/tnm-erstdiagnose",
                                    "valueBoolean": true
                                },
                                {
                                    "url": "http://uk-koeln.de/fhir/StructureDefinition/Extension/nngm/tnm-kurativ-operabel",
                                    "valueBoolean": false
                                }
                            ],
                            "effectiveDateTime": "2020-09-08",
                            "component": [
                                {
                                    "code": {
                                        "coding": [
                                            {
                                                "system": "http://loinc.org",
                                                "code": "59479-6"
                                            }
                                        ]
                                    },
                                    "valueBoolean": true
                                },
                                {
                                    "code": {
                                        "coding": [
                                            {
                                                "system": "http://loinc.org",
                                                "code": "21905-5"
                                            }
                                        ]
                                    },
                                    "valueCodeableConcept": {
                                        "text": "T slice",
                                        "coding": [
                                            {
                                                "system": "http://uk-koeln.de/fhir/ValueSet/nngm/tnm-t-nngm",
                                                "code": "T1c"
                                            }
                                        ]
                                    },
                                    "extension": [
                                        {
                                            "url": "http://uk-koeln.de/fhir/StructureDefinition/Extension/nngm/tnm-praefix-cpu",
                                            "valueCodeableConcept": {
                                                "text": "T-praefix slice",
                                                "coding": [
                                                    {
                                                        "system": "http://uk-koeln.de/fhir/ValueSet/nngm/tnm-praefix-cpu",
                                                        "code": "p - histopathologisch gesichert"
                                                    }
                                                ]
                                            }
                                        },
                                        {
                                            "url": "http://uk-koeln.de/fhir/StructureDefinition/Extension/nngm/tnm-suffix-miscy",
                                            "valueCodeableConcept": {
                                                "text": "T-suffix slice",
                                                "coding": [
                                                    {
                                                        "system": "http://uk-koeln.de/fhir/ValueSet/nngm/tnm-suffix-miscy",
                                                        "code": "cy - zytologisch"
                                                    }
                                                ]
                                            }
                                        }
                                    ]
                                },
                                {
                                    "code": {
                                        "coding": [
                                            {
                                                "system": "http://loinc.org",
                                                "code": "21906-3"
                                            }
                                        ]
                                    },
                                    "valueCodeableConcept": {
                                        "text": "N slice",
                                        "coding": [
                                            {
                                                "system": "http://uk-koeln.de/fhir/ValueSet/nngm/tnm-n-nngm",
                                                "code": "N1c"
                                            }
                                        ]
                                    },
                                    "extension": [
                                        {
                                            "url": "http://uk-koeln.de/fhir/StructureDefinition/Extension/nngm/tnm-praefix-cpu",
                                            "valueCodeableConcept": {
                                                "coding": [
                                                    {
                                                        "system": "http://uk-koeln.de/fhir/ValueSet/nngm/tnm-praefix-cpu",
                                                        "code": "p - histopathologisch gesichert"
                                                    }
                                                ],
                                                "text": "N-praefix slice"
                                            }
                                        }
                                    ]
                                },
                                {
                                    "code": {
                                        "coding": [
                                            {
                                                "system": "http://loinc.org",
                                                "code": "21907-1"
                                            }
                                        ]
                                    },
                                    "valueCodeableConcept": {
                                        "text": "M slice",
                                        "coding": [
                                            {
                                                "system": "http://uk-koeln.de/fhir/ValueSet/nngm/tnm-m-nngm",
                                                "code": "M1a"
                                            }
                                        ]
                                    },
                                    "extension": [
                                        {
                                            "url": "http://uk-koeln.de/fhir/StructureDefinition/Extension/nngm/tnm-praefix-cpu",
                                            "valueCodeableConcept": {
                                                "coding": [
                                                    {
                                                        "system": "http://uk-koeln.de/fhir/ValueSet/nngm/tnm-praefix-cpu",
                                                        "code": "u - Ultraschalldiagnostik"
                                                    }
                                                ],
                                                "text": "M-praefix slice"
                                            }
                                        }
                                    ]
                                }
                            ],
                            "id": "7ef97554-dbab-4a47-a747-d2e32a381109",
                            "valueCodeableConcept": {
                                "coding": [
                                    {
                                        "system": "http://uk-koeln.de/fhir/ValueSet/nngm/uicc-stage",
                                        "code": "IA3"
                                    }
                                ]
                            }
                        },
                        "request": {
                            "method": "PUT",
                            "url": "Observation/7ef97554-dbab-4a47-a747-d2e32a381109"
                        }
                    },
                    {
                        "resource": {
                            "resourceType": "ServiceRequest",
                            "meta": {
                                "profile": [
                                    "http://uk-koeln.de/fhir/StructureDefinition/ServiceRequest/nNGM/testung"
                                ]
                            },
                            "subject": {
                                "reference": "http://localhost:4080/administration/Patient/620c7635-8810-48a7-843e-3b037aa860ae"
                            },
                            "_status": {
                                "extension": [
                                    {
                                        "url": "http://hl7.org/fhir/StructureDefinition/data-absent-reason",
                                        "valueCode": "not-asked"
                                    }
                                ]
                            },
                            "intent": "proposal",
                            "category": [
                                {
                                    "coding": [
                                        {
                                            "system": "http://uk-koeln.de/fhir/ValueSet/nngm/anforderung-kategorie",
                                            "code": "C12434",
                                            "display": "Blutdiagnostik (Liquid Biopsy)"
                                        }
                                    ]
                                }
                            ],
                            "orderDetail": [
                                {
                                    "coding": [
                                        {
                                            "system": "http://uk-koeln.de/fhir/ValueSet/nngm/anforderung-orderDetails",
                                            "code": "C19391",
                                            "display": "Resistenztestung"
                                        }
                                    ]
                                }
                            ],
                            "extension": [
                                {
                                    "url": "http://uk-koeln.de/fhir/StructureDefinition/Extension/nNGM/GrundFehlendeBiopsy",
                                    "valueCodeableConcept": {
                                        "coding": [
                                            {
                                                "system": "http://uk-koeln.de/fhir/ValueSet/nNGM/grundfehlendeBiopsie",
                                                "code": "FT",
                                                "display": "Fehlende Tumormanifestation, die einer Biopsie zugänglich wäre"
                                            }
                                        ]
                                    }
                                },
                                {
                                    "url": "http://uk-koeln.de/fhir/StructureDefinition/Extension/nNGM/GrundFehlendeBiopsy",
                                    "valueCodeableConcept": {
                                        "coding": [
                                            {
                                                "system": "http://uk-koeln.de/fhir/ValueSet/nNGM/grundfehlendeBiopsie",
                                                "code": "RA",
                                                "display": "Reduzierter Allgemeinzustand"
                                            }
                                        ]
                                    }
                                },
                                {
                                    "url": "http://uk-koeln.de/fhir/StructureDefinition/Extension/nNGM/GrundFehlendeBiopsy",
                                    "valueCodeableConcept": {
                                        "coding": [
                                            {
                                                "system": "http://uk-koeln.de/fhir/ValueSet/nNGM/grundfehlendeBiopsie",
                                                "code": "UR",
                                                "display": "Unzumutbares Risikos einer Biopsie bzw. zu erwartende Komplikationen"
                                            }
                                        ]
                                    }
                                },
                                {
                                    "url": "http://uk-koeln.de/fhir/StructureDefinition/Extension/nNGM/GrundFehlendeBiopsy",
                                    "valueCodeableConcept": {
                                        "coding": [
                                            {
                                                "system": "http://uk-koeln.de/fhir/ValueSet/nNGM/grundfehlendeBiopsie",
                                                "code": "AP",
                                                "display": "Ablehnung seitens Patient(in)"
                                            }
                                        ]
                                    }
                                }
                            ],
                            "reasonReference": [
                                {
                                    "reference": "http://localhost:4080/administration/Observation/e9d71fdc-9d0c-4875-8510-2090d8aa80f4"
                                }
                            ],
                            "id": "552f9267-6811-4983-8134-58ffe229448f",
                            "requester": {
                                "reference": "http://localhost:4080/administration/Organization/570d5a2d-fd21-4e3f-805a-e9c97e9bc97a"
                            }
                        },
                        "request": {
                            "method": "PUT",
                            "url": "ServiceRequest/552f9267-6811-4983-8134-58ffe229448f"
                        }
                    },
                    {
                        "resource": {
                            "resourceType": "Observation",
                            "meta": {
                                "profile": [
                                    "http://uk-koeln.de/fhir/StructureDefinition/Observation/nNGM/histo-vorbefund"
                                ]
                            },
                            "subject": {
                                "reference": "http://localhost:4080/administration/Patient/620c7635-8810-48a7-843e-3b037aa860ae"
                            },
                            "status": "final",
                            "category": [
                                {
                                    "coding": [
                                        {
                                            "system": "http://hl7.org/fhir/observation-category",
                                            "code": "laboratory"
                                        }
                                    ]
                                }
                            ],
                            "code": {
                                "coding": [
                                    {
                                        "system": "http://ncit.nci.nih.gov",
                                        "code": "C19165"
                                    }
                                ]
                            },
                            "valueCodeableConcept": {
                                "coding": [
                                    {
                                        "system": "http://uk-koeln.de/fhir/ValueSet/nngm/histologie-klassifikation",
                                        "code": "CUP",
                                        "display": "CUP"
                                    }
                                ]
                            },
                            "id": "ca339653-b86a-4ab2-b71f-f07bc2e19967"
<<<<<<< master
                        },
                        "request": {
                            "method": "PUT",
                            "url": "Observation/ca339653-b86a-4ab2-b71f-f07bc2e19967"
                        }
                    }
                ],
                "id": "4a2b0fe6-2e69-4c92-a7a3-f83a92e94f99",
=======
                            "dateTime": "2020-11-01",
                            "id": "b91ed9a6-4594-4f47-8032-9e2afa59ddb4"
=======
>>>>>>> test data merge
                        },
                        "request": {
                            "method": "PUT",
                            "url": "Observation/ca339653-b86a-4ab2-b71f-f07bc2e19967"
                        }
                    }
                ],
<<<<<<< master
                "id": "ae2dc6e9-b243-49ce-a561-422cad6581e1",
>>>>>>> init
=======
                "id": "4a2b0fe6-2e69-4c92-a7a3-f83a92e94f99",
>>>>>>> test data merge
                "type": "transaction"
            }
        }
    ]
}