{
    "resourceType": "Bundle",
    "id": "bd4d64cb-0e20-45e5-bb74-0b3a904f3df1",
    "type": "collection",
    "entry": [
        {
            "resource": {
                "resourceType": "Bundle",
                "entry": [
                    {
                        "resource": {
                            "resourceType": "Composition",
                            "title": "Stammdaten pseudonymisiert",
                            "id": "9044ea17-7c06-4706-84fb-2aef242acfc1",
                            "meta": {
                                "profile": [
                                    "http://uk-koeln.de/fhir/StructureDefinition/Composition/nNGM/Stammdaten-pseudonymisiert"
                                ]
                            },
                            "status": "final",
                            "type": {
                                "coding": [
                                    {
                                        "system": "http://uk-koeln.de/fhir/CodeSystem/nngm/compositions",
                                        "code": "stammdaten"
                                    }
                                ]
                            },
                            "category": [
                                {
                                    "coding": [
                                        {
                                            "system": "http://uk-koeln.de/fhir/CodeSystem/nngm/composition-category",
                                            "code": "psn"
                                        }
                                    ]
                                }
                            ],
                            "subject": {
                                "reference": "https://vonk.fhir.dev.healex.systems/administration/620c7635-8810-48a7-843e-3b037aa860ae",
                                "identifier": {
                                    "system": "http://uk-koeln.de/fhir/NamingSystem/nNGM/patient-identifier",
                                    "value": "1wy299WK"
                                }
                            },
                            "date": "2021-01-21T12:38:37+01:00",
                            "author": [
                                {
                                    "extension": [
                                        {
                                            "url": "http://hl7.org/fhir/StructureDefinition/data-absent-reason",
                                            "valueCode": "not-asked"
                                        }
                                    ]
                                }
                            ],
                            "section": [
                                {
                                    "code": {
                                        "coding": [
                                            {
                                                "system": "http://uk-koeln.de/fhir/CodeSystem/nngm/sections",
                                                "code": "stammdaten"
                                            }
                                        ]
                                    },
                                    "entry": [
                                        {
                                            "reference": "https://vonk.fhir.dev.healex.systems/administration/Patient/620c7635-8810-48a7-843e-3b037aa860ae"
                                        },
                                        {
                                            "reference": "https://vonk.fhir.dev.healex.systems/administration/Coverage/bdd7d7de-4326-45f1-9168-8c1adbf5f624"
                                        },
                                        {
                                            "reference": "https://vonk.fhir.dev.healex.systems/administration/EpisodeOfCare/0ea3bde8-0fb5-472b-8cc0-437e96ca548c"
                                        },
                                        {
                                            "reference": "https://vonk.fhir.dev.healex.systems/administration/Consent/82964a95-abed-4a54-ac54-4948a0e63ae0"
                                        },
                                        {
                                            "reference": "https://vonk.fhir.dev.healex.systems/administration/Consent/091c943d-ddfc-48a7-941f-fd09f7a295a1"
                                        }
                                    ]
                                }
                            ]
                        },
                        "request": {
                            "method": "PUT",
                            "url": "Composition/9044ea17-7c06-4706-84fb-2aef242acfc1"
                        }
                    },
                    {
                        "resource": {
                            "resourceType": "Patient",
                            "meta": {
                                "profile": [
                                    "http://uk-koeln.de/fhir/StructureDefinition/Patient/nNGM/pseudonymisiert"
                                ]
                            },
                            "identifier": [
                                {
                                    "system": "http://uk-koeln.de/fhir/NamingSystem/nNGM/patient-identifier",
                                    "value": "1wy299WK"
                                }
                            ],
                            "birthDate": "2021-01-21",
                            "gender": "male",
                            "id": "620c7635-8810-48a7-843e-3b037aa860ae",
                            "deceasedDateTime": "2021-01-14",
                            "extension": [
                                {
                                    "url": "http://uk-koeln.de/fhir/StructureDefinition/Extension/nNGM/izt",
                                    "valueCodeableConcept": {
                                        "coding": [
                                            {
                                                "system": "http://uk-koeln.de/fhir/CodeSystem/nngm/izt",
                                                "code": "KISS"
                                            }
                                        ]
                                    }
                                }
                            ]
                        },
                        "request": {
                            "method": "PUT",
                            "url": "Patient/620c7635-8810-48a7-843e-3b037aa860ae"
                        }
                    },
                    {
                        "resource": {
                            "resourceType": "Coverage",
                            "meta": {
                                "profile": [
                                    "http://uk-koeln.de/fhir/StructureDefinition/Coverage/nNGM/pseudonymisiert"
                                ]
                            },
                            "status": "active",
                            "beneficiary": {
                                "reference": "https://vonk.fhir.dev.healex.systems/administration/Patient/620c7635-8810-48a7-843e-3b037aa860ae"
                            },
                            "subscriber": {
                                "reference": "https://vonk.fhir.dev.healex.systems/administration/Patient/620c7635-8810-48a7-843e-3b037aa860ae"
                            },
                            "type": {
                                "coding": [
                                    {
                                        "system": "http://fhir.de/CodeSystem/versicherungsart-de-basis",
                                        "code": "GKV"
                                    }
                                ]
                            },
                            "payor": [
                                {
                                    "display": "AOK Bremen/Bremerhaven"
                                }
                            ],
                            "extension": [
                                {
                                    "url": "http://uk-koeln.de/fhir/StructureDefinition/Extension/nNGM/kooperationsvereinbarung",
                                    "valueBoolean": false
                                }
                            ],
                            "id": "bdd7d7de-4326-45f1-9168-8c1adbf5f624"
                        },
                        "request": {
                            "method": "PUT",
                            "url": "Coverage/bdd7d7de-4326-45f1-9168-8c1adbf5f624"
                        }
                    },
                    {
                        "resource": {
                            "resourceType": "EpisodeOfCare",
                            "meta": {
                                "profile": [
                                    "http://uk-koeln.de/fhir/StructureDefinition/EpisodeOfCare/nNGM"
                                ]
                            },
                            "patient": {
                                "reference": "https://vonk.fhir.dev.healex.systems/administration/Patient/620c7635-8810-48a7-843e-3b037aa860ae"
                            },
                            "status": "active",
                            "identifier": [
                                {
                                    "extension": [
                                        {
                                            "url": "http://hl7.org/fhir/StructureDefinition/data-absent-reason",
                                            "valueCode": "not-asked"
                                        }
                                    ]
                                }
                            ],
                            "extension": [
                                {
                                    "url": "http://uk-koeln.de/fhir/StructureDefinition/Extension/nNGM/FollowUpStatus",
                                    "valueCodeableConcept": {
                                        "coding": [
                                            {
                                                "system": "http://uk-koeln.de/fhir/CodeSystem/ngnm/FollowUpStatus",
                                                "code": "lebt"
                                            }
                                        ]
                                    }
                                },
                                {
                                    "url": "http://uk-koeln.de/fhir/StructureDefinition/Extension/nNGM/Erstdiagnose",
                                    "valueDateTime": "2020-11-12"
                                },
                                {
                                    "url": "http://uk-koeln.de/fhir/StructureDefinition/Extension/nNGM/abrechnungsinformation/letzterKontakt",
                                    "valueDateTime": "2020-11-13"
                                }
                            ],
                            "id": "0ea3bde8-0fb5-472b-8cc0-437e96ca548c"
                        },
                        "request": {
                            "method": "PUT",
                            "url": "EpisodeOfCare/0ea3bde8-0fb5-472b-8cc0-437e96ca548c"
                        }
                    },
                    {
                        "resource": {
                            "resourceType": "Consent",
                            "meta": {
                                "profile": [
                                    "http://uk-koeln.de/fhir/StructureDefinition/Consent/nNGM"
                                ]
                            },
                            "status": "active",
                            "scope": {
                                "coding": [
                                    {
                                        "system": "http://terminology.hl7.org/CodeSystem/consentscope",
                                        "code": "patient-privacy"
                                    }
                                ]
                            },
                            "category": [
                                {
                                    "coding": [
                                        {
                                            "system": "http://loinc.org",
                                            "code": "59284-0"
                                        }
                                    ]
                                }
                            ],
                            "patient": {
                                "reference": "https://vonk.fhir.dev.healex.systems/administration/Patient/620c7635-8810-48a7-843e-3b037aa860ae"
                            },
                            "provision": {
                                "type": "permit"
                            },
                            "policyRule": {
                                "coding": [
                                    {
                                        "system": "http://uk-koeln.de/fhir/CodeSystem/nngm/nngm-consent-policy",
                                        "code": "1a"
                                    }
                                ]
                            },
                            "dateTime": "2021-01-01",
                            "id": "82964a95-abed-4a54-ac54-4948a0e63ae0"
                        },
                        "request": {
                            "method": "PUT",
                            "url": "Consent/82964a95-abed-4a54-ac54-4948a0e63ae0"
                        }
                    },
                    {
                        "resource": {
                            "resourceType": "Consent",
                            "meta": {
                                "profile": [
                                    "http://uk-koeln.de/fhir/StructureDefinition/Consent/nNGM"
                                ]
                            },
                            "status": "active",
                            "scope": {
                                "coding": [
                                    {
                                        "system": "http://terminology.hl7.org/CodeSystem/consentscope",
                                        "code": "patient-privacy"
                                    }
                                ]
                            },
                            "category": [
                                {
                                    "coding": [
                                        {
                                            "system": "http://loinc.org",
                                            "code": "59284-0"
                                        }
                                    ]
                                }
                            ],
                            "patient": {
                                "reference": "https://vonk.fhir.dev.healex.systems/administration/Patient/620c7635-8810-48a7-843e-3b037aa860ae"
                            },
                            "provision": {
                                "type": "permit"
                            },
                            "policyRule": {
                                "coding": [
                                    {
                                        "system": "http://uk-koeln.de/fhir/CodeSystem/nngm/nngm-consent-policy",
                                        "code": "1b"
                                    }
                                ]
                            },
                            "dateTime": "2021-01-01",
                            "id": "091c943d-ddfc-48a7-941f-fd09f7a295a1"
                        },
                        "request": {
                            "method": "PUT",
                            "url": "Consent/091c943d-ddfc-48a7-941f-fd09f7a295a1"
                        }
                    }
                ],
                "id": "3931aa62-2254-4363-9d38-c1b85ec8f60a",
                "type": "transaction"
            }
        },
        {
            "resource": {
                "resourceType": "Bundle",
                "entry": [
                    {
                        "resource": {
                            "resourceType": "Composition",
                            "title": "nNGM - Antrag Pseudonymisiert",
                            "id": "6f2ceaca-c1d3-453c-8329-b87f82f84fb3",
                            "meta": {
                                "profile": [
                                    "http://uk-koeln.de/fhir/StructureDefinition/Composition/nNGM/Antrag-pseudonymisiert"
                                ]
                            },
                            "status": "final",
                            "identifier": {
                                "system": "http://uk-koeln.de/NamingSystem/nNGM/fallnummer",
                                "value": "1"
                            },
                            "type": {
                                "coding": [
                                    {
                                        "system": "http://uk-koeln.de/fhir/CodeSystem/nngm/compositions",
                                        "code": "antrag"
                                    }
                                ]
                            },
                            "category": [
                                {
                                    "coding": [
                                        {
                                            "system": "http://uk-koeln.de/fhir/CodeSystem/nngm/composition-category",
                                            "code": "psn"
                                        }
                                    ]
                                }
                            ],
                            "subject": {
                                "reference": "https://vonk.fhir.dev.healex.systems/administration/620c7635-8810-48a7-843e-3b037aa860ae",
                                "identifier": {
                                    "system": "http://uk-koeln.de/fhir/NamingSystem/nNGM/patient-identifier",
                                    "value": "1wy299WK"
                                }
                            },
                            "date": "2021-01-21T12:38:37+01:00",
                            "author": [
                                {
                                    "reference": "https://clinicalsite.org/person/38"
                                }
                            ],
                            "section": [
                                {
                                    "title": "basisangaben",
                                    "code": {
                                        "coding": [
                                            {
                                                "system": "http://uk-koeln.de/fhir/CodeSystem/nngm/sections",
                                                "code": "basisangaben"
                                            }
                                        ]
                                    },
                                    "entry": [
                                        {
                                            "reference": "https://vonk.fhir.dev.healex.systems/administration/Organization/0055f819-5a28-4626-a83f-a098aa9fac80"
                                        },
                                        {
                                            "reference": "https://vonk.fhir.dev.healex.systems/administration/ServiceRequest/b900b576-f7bf-4c32-bddf-5783fa560d5e"
                                        },
                                        {
                                            "reference": "https://vonk.fhir.dev.healex.systems/administration/Coverage/2b23f65d-25f0-48f7-9c03-cf009b11a645"
                                        },
                                        {
                                            "reference": "https://vonk.fhir.dev.healex.systems/administration/Observation/86eb51de-8138-422e-a7ca-0c497c2a6259"
                                        },
                                        {
                                            "reference": "https://vonk.fhir.dev.healex.systems/administration/Observation/50bb8c57-591d-4687-9039-c34bca3a4ed9"
                                        },
                                        {
                                            "reference": "https://vonk.fhir.dev.healex.systems/administration/Observation/8a8f7493-6c18-40bb-bd25-e48944cf4462"
                                        },
                                        {
                                            "reference": "https://vonk.fhir.dev.healex.systems/administration/Observation/5cf7f77b-678f-441f-b6ab-fb1f0fd7a9ba"
                                        },
                                        {
                                            "reference": "https://vonk.fhir.dev.healex.systems/administration/Practitioner/d7d69f9e-3c05-4d31-8a5f-569f8daceb39"
                                        },
                                        {
                                            "reference": "https://vonk.fhir.dev.healex.systems/administration/Consent/bcfefe27-d69d-4d65-8268-fe167b2fe79f"
                                        },
                                        {
                                            "reference": "https://vonk.fhir.dev.healex.systems/administration/Consent/d1f5a6ae-91fb-4417-92fc-b65fa3bec0f5"
                                        },
                                        {
                                            "reference": "https://vonk.fhir.dev.healex.systems/administration/Consent/9cf95bcf-5d2d-4a8b-8223-6a56e599236b"
                                        },
                                        {
                                            "reference": "https://vonk.fhir.dev.healex.systems/administration/Consent/9b851ad1-6538-42ee-bfab-c5ff15315e41"
                                        },
                                        {
                                            "reference": "https://vonk.fhir.dev.healex.systems/administration/Consent/6c2e8aa4-8d62-4e72-b910-bb431bd69541"
                                        },
                                        {
                                            "reference": "https://vonk.fhir.dev.healex.systems/administration/Consent/368ad519-af04-4cea-90f2-0bf9f2b6ff44"
                                        },
                                        {
                                            "reference": "https://vonk.fhir.dev.healex.systems/administration/Consent/6e14c356-e44e-4964-9434-71afbaeca57b"
                                        },
                                        {
                                            "reference": "https://vonk.fhir.dev.healex.systems/administration/Consent/863f46c3-fcdd-4c7a-a420-0130ac8b07d2"
                                        },
                                        {
                                            "reference": "https://vonk.fhir.dev.healex.systems/administration/Consent/934911e9-b35c-4388-8616-4db4529f5603"
                                        },
                                        {
                                            "reference": "https://vonk.fhir.dev.healex.systems/administration/Consent/0d41057c-a6ab-498c-8501-f09cc3103266"
                                        },
                                        {
                                            "reference": "https://vonk.fhir.dev.healex.systems/administration/Consent/61a78398-10d4-4865-95d1-937e976057bd"
                                        },
                                        {
                                            "reference": "https://vonk.fhir.dev.healex.systems/administration/Consent/0cb9f080-9089-444f-ac6d-6d563af609af"
                                        },
                                        {
                                            "reference": "https://vonk.fhir.dev.healex.systems/administration/Consent/9201b5db-a298-4cf1-8894-c2d26e00df00"
                                        },
                                        {
                                            "reference": "https://vonk.fhir.dev.healex.systems/administration/Consent/2f757581-bd15-4961-8763-d6f86d26468c"
                                        },
                                        {
                                            "reference": "https://vonk.fhir.dev.healex.systems/administration/Consent/717e4675-0ddb-4c6c-a4fb-935193750f1c"
                                        }
                                    ]
                                },
                                {
                                    "title": "biopsy",
                                    "code": {
                                        "coding": [
                                            {
                                                "system": "http://uk-koeln.de/fhir/CodeSystem/nngm/sections",
                                                "code": "biopsie"
                                            }
                                        ]
                                    },
                                    "entry": [
                                        {
                                            "identifier": {
                                                "system": "http://uk-koeln.de/NamingSystem/nNGM/formularId",
                                                "value": "1"
                                            }
                                        }
                                    ],
                                    "section": [
                                        {
                                            "title": "anforderung",
                                            "code": {
                                                "coding": [
                                                    {
                                                        "system": "http://uk-koeln.de/fhir/CodeSystem/nngm/sections",
                                                        "code": "anforderung"
                                                    }
                                                ]
                                            },
                                            "entry": [
                                                {
                                                    "reference": "https://vonk.fhir.dev.healex.systems/administration/ServiceRequest/5c45b8b0-08f7-4ee1-af09-02f0367be5a2"
                                                },
                                                {
                                                    "reference": "https://vonk.fhir.dev.healex.systems/administration/ServiceRequest/a2cf0932-805a-4835-bcf1-3c865cb241c5"
                                                },
                                                {
                                                    "reference": "https://vonk.fhir.dev.healex.systems/administration/Specimen/3afeedb3-79be-413a-9cfe-5b554a6ceb88"
                                                },
                                                {
                                                    "reference": "https://vonk.fhir.dev.healex.systems/administration/Specimen/1e1c29c8-225e-449e-b819-e85fc8390213"
                                                },
                                                {
                                                    "reference": "https://vonk.fhir.dev.healex.systems/administration/Observation/c31e9745-f0ad-479c-b0c2-b6bb41217200"
                                                },
                                                {
                                                    "reference": "https://vonk.fhir.dev.healex.systems/administration/Observation/cbf56953-9418-41cb-bfa7-a6675a6f62e0"
                                                },
                                                {
                                                    "reference": "https://vonk.fhir.dev.healex.systems/administration/Organization/e96fcbf7-fefa-4bcd-8338-461bbad8ce0d"
                                                }
                                            ]
                                        },
                                        {
                                            "title": "tnm",
                                            "code": {
                                                "coding": [
                                                    {
                                                        "system": "http://uk-koeln.de/fhir/CodeSystem/nngm/sections",
                                                        "code": "tnm"
                                                    }
                                                ]
                                            },
                                            "entry": [
                                                {
                                                    "reference": "https://vonk.fhir.dev.healex.systems/administration/Observation/7ef97554-dbab-4a47-a747-d2e32a381109"
                                                }
                                            ]
                                        },
                                        {
                                            "title": "resistenztestung",
                                            "code": {
                                                "coding": [
                                                    {
                                                        "system": "http://uk-koeln.de/fhir/CodeSystem/nngm/sections",
                                                        "code": "resistenztestung"
                                                    }
                                                ]
                                            },
                                            "entry": [
                                                {
                                                    "reference": "https://vonk.fhir.dev.healex.systems/administration/Observation/36c26d8a-77fb-45a1-85e9-02a5d14563b1"
                                                },
                                                {
                                                    "reference": "https://vonk.fhir.dev.healex.systems/administration/Observation/6f6a5e29-7474-42d0-82c0-4fd251158eb7"
                                                },
                                                {
                                                    "reference": "https://vonk.fhir.dev.healex.systems/administration/Observation/a21461ee-c7fe-4c3b-bc07-7ba8f05abedf"
                                                },
                                                {
                                                    "reference": "https://vonk.fhir.dev.healex.systems/administration/Observation/39830960-1ec4-4bd3-99f3-a39730f64067"
                                                }
                                            ]
                                        }
                                    ]
                                },
                                {
                                    "title": "biopsy",
                                    "code": {
                                        "coding": [
                                            {
                                                "system": "http://uk-koeln.de/fhir/CodeSystem/nngm/sections",
                                                "code": "biopsie"
                                            }
                                        ]
                                    },
                                    "entry": [
                                        {
                                            "identifier": {
                                                "system": "http://uk-koeln.de/NamingSystem/nNGM/formularId",
                                                "value": "2"
                                            }
                                        }
                                    ],
                                    "section": [
                                        {
                                            "title": "anforderung",
                                            "code": {
                                                "coding": [
                                                    {
                                                        "system": "http://uk-koeln.de/fhir/CodeSystem/nngm/sections",
                                                        "code": "anforderung"
                                                    }
                                                ]
                                            },
                                            "entry": [
                                                {
                                                    "reference": "https://vonk.fhir.dev.healex.systems/administration/ServiceRequest/552f9267-6811-4983-8134-58ffe229448f"
                                                },
                                                {
                                                    "reference": "https://vonk.fhir.dev.healex.systems/administration/Specimen/ca339653-b86a-4ab2-b71f-f07bc2e19967"
                                                },
                                                {
                                                    "reference": "https://vonk.fhir.dev.healex.systems/administration/Observation/e9d71fdc-9d0c-4875-8510-2090d8aa80f4"
                                                }
                                            ]
                                        }
                                    ]
                                }
                            ]
                        },
                        "request": {
                            "method": "PUT",
                            "url": "Composition/6f2ceaca-c1d3-453c-8329-b87f82f84fb3"
                        }
                    },
                    {
                        "resource": {
                            "resourceType": "Organization",
                            "meta": {
                                "profile": [
                                    "http://clinicalsite.org/fhir/StructureDefinition/organizationalunit"
                                ]
                            },
                            "identifier": [
                                {
                                    "system": "http://healex.systems/fhir/NamingSystem/nNGMnetzwerkzentrumid",
                                    "value": "1344"
                                }
                            ],
                            "name": "Essen",
                            "contact": [
                                {
                                    "address": {
                                        "text": "Essen\r\n\r\nUniversitätsklinikum Essen\r\nHufelandstr. 55\r\n45147 Essen\r\n+49 (0) 201 723 50 70\r\n+49 (0) 201 723 16 14"
                                    }
                                }
                            ],
                            "id": "0055f819-5a28-4626-a83f-a098aa9fac80"
                        },
                        "request": {
                            "method": "PUT",
                            "url": "Organization/0055f819-5a28-4626-a83f-a098aa9fac80"
                        }
                    },
                    {
                        "resource": {
                            "resourceType": "ServiceRequest",
                            "meta": {
                                "profile": [
                                    "http://uk-koeln.de/fhir/StructureDefinition/ServiceRequest/nNGM/tumorboard"
                                ]
                            },
                            "status": "active",
                            "intent": "proposal",
                            "code": {
                                "coding": [
                                    {
                                        "system": "http://ncit.nci.nih.gov",
                                        "code": "C19165"
                                    }
                                ]
                            },
                            "requester": {
                                "reference": "https://vonk.fhir.dev.healex.systems/administration/",
                                "_reference": {
                                    "extension": [
                                        {
                                            "url": "http://hl7.org/fhir/StructureDefinition/data-absent-reason",
                                            "valueCode": "not-asked"
                                        }
                                    ]
                                },
                                "extension": [
                                    {
                                        "url": "http://uk-koeln.de/fhir/StructureDefinition/Extension/nNGM/vorstellung-tmb",
                                        "valueBoolean": true
                                    },
                                    {
                                        "url": "http://uk-koeln.de/fhir/StructureDefinition/Extension/nNGM/persoenlicheTeilnahme",
                                        "valueBoolean": false
                                    }
                                ]
                            },
                            "subject": {
                                "reference": "https://vonk.fhir.dev.healex.systems/administration/Patient/620c7635-8810-48a7-843e-3b037aa860ae"
                            },
                            "id": "b900b576-f7bf-4c32-bddf-5783fa560d5e",
                            "performer": [
                                {
                                    "reference": "https://vonk.fhir.dev.healex.systems/administration/Organization/0055f819-5a28-4626-a83f-a098aa9fac80"
                                }
                            ],
                            "authoredOn": "2020-01-01",
                            "encounter": {
                                "extension": [
                                    {
                                        "url": "http://uk-koeln.de/fhir/StructureDefinition/Extension/nNGM/aufenthaltsart",
                                        "valueCodeableConcept": {
                                            "coding": [
                                                {
                                                    "system": "http://hl7.org/fhir/v3/ActCode",
                                                    "code": "AMB",
                                                    "display": "ambulatory"
                                                }
                                            ]
                                        }
                                    }
                                ]
                            },
                            "reasonReference": [
                                {
                                    "reference": "https://vonk.fhir.dev.healex.systems/administration/Observation/8a8f7493-6c18-40bb-bd25-e48944cf4462"
                                },
                                {
                                    "reference": "https://vonk.fhir.dev.healex.systems/administration/Observation/50bb8c57-591d-4687-9039-c34bca3a4ed9"
                                },
                                {
                                    "reference": "https://vonk.fhir.dev.healex.systems/administration/Observation/86eb51de-8138-422e-a7ca-0c497c2a6259"
                                },
                                {
                                    "reference": "https://vonk.fhir.dev.healex.systems/administration/Observation/5cf7f77b-678f-441f-b6ab-fb1f0fd7a9ba"
                                }
                            ]
                        },
                        "request": {
                            "method": "PUT",
                            "url": "ServiceRequest/b900b576-f7bf-4c32-bddf-5783fa560d5e"
                        }
                    },
                    {
                        "resource": {
                            "resourceType": "Coverage",
                            "meta": {
                                "profile": [
                                    "http://uk-koeln.de/fhir/StructureDefinition/Coverage/nNGM/pseudonymisiert"
                                ]
                            },
                            "status": "active",
                            "beneficiary": {
                                "reference": "https://vonk.fhir.dev.healex.systems/administration/Patient/620c7635-8810-48a7-843e-3b037aa860ae"
                            },
                            "payor": [
                                {
                                    "reference": "https://vonk.fhir.dev.healex.systems/administration/Organization/0055f819-5a28-4626-a83f-a098aa9fac80"
                                },
                                {
                                    "extension": [
                                        {
                                            "url": "http://uk-koeln.de/fhir/StructureDefinition/Extension/nNGM/abrechnungsinformation",
                                            "valueCodeableConcept": {
                                                "coding": [
                                                    {
                                                        "system": "http://uk-koeln.de/fhir/CodeSystem/nngm/abrechnungsinformation",
                                                        "code": "nNGM-Fall stationär, nicht BV"
                                                    }
                                                ]
                                            }
                                        }
                                    ]
                                },
                                {
                                    "display": "BAHN-BKK"
                                }
                            ],
                            "type": {
                                "coding": [
                                    {
                                        "system": "http://fhir.de/CodeSystem/versicherungsart-de-basis",
                                        "code": "GKV"
                                    }
                                ]
                            },
                            "extension": [
                                {
                                    "url": "http://uk-koeln.de/fhir/StructureDefinition/Extension/nNGM/kooperationsvereinbarung",
                                    "valueBoolean": false
                                }
                            ],
                            "id": "2b23f65d-25f0-48f7-9c03-cf009b11a645"
                        },
                        "request": {
                            "method": "PUT",
                            "url": "Coverage/2b23f65d-25f0-48f7-9c03-cf009b11a645"
                        }
                    },
                    {
                        "resource": {
                            "resourceType": "Observation",
                            "meta": {
                                "profile": [
                                    "http://uk-koeln.de/fhir/StructureDefinition/Observation/nNGM/koerpergroesse"
                                ]
                            },
                            "status": "final",
                            "category": [
                                {
                                    "coding": [
                                        {
                                            "system": "http://terminology.hl7.org/CodeSystem/observation-category",
                                            "code": "vital-signs"
                                        }
                                    ]
                                }
                            ],
                            "code": {
                                "coding": [
                                    {
                                        "system": "http://loinc.org",
                                        "code": "8302-2"
                                    }
                                ]
                            },
                            "subject": {
                                "reference": "https://vonk.fhir.dev.healex.systems/administration/Patient/620c7635-8810-48a7-843e-3b037aa860ae"
                            },
                            "effectiveDateTime": "2021-01-21T12:38:37+01:00",
                            "performer": [
                                {
                                    "reference": "https://vonk.fhir.dev.healex.systems/administration/Practitioner/d7d69f9e-3c05-4d31-8a5f-569f8daceb39"
                                },
                                {
                                    "reference": "https://vonk.fhir.dev.healex.systems/administration/Organization/0055f819-5a28-4626-a83f-a098aa9fac80"
                                }
                            ],
                            "valueQuantity": {
                                "system": "http://unitsofmeasure.org",
                                "unit": "centimeter",
                                "code": "cm",
                                "value": 180
                            },
                            "id": "86eb51de-8138-422e-a7ca-0c497c2a6259"
                        },
                        "request": {
                            "method": "PUT",
                            "url": "Observation/86eb51de-8138-422e-a7ca-0c497c2a6259"
                        }
                    },
                    {
                        "resource": {
                            "resourceType": "Observation",
                            "meta": {
                                "profile": [
                                    "http://uk-koeln.de/fhir/StructureDefinition/Observation/nNGM/koerpergewicht"
                                ]
                            },
                            "status": "final",
                            "category": [
                                {
                                    "coding": [
                                        {
                                            "system": "http://terminology.hl7.org/CodeSystem/observation-category",
                                            "code": "vital-signs"
                                        }
                                    ]
                                }
                            ],
                            "code": {
                                "coding": [
                                    {
                                        "system": "http://loinc.org",
                                        "code": "29463-7"
                                    }
                                ]
                            },
                            "subject": {
                                "reference": "https://vonk.fhir.dev.healex.systems/administration/Patient/620c7635-8810-48a7-843e-3b037aa860ae"
                            },
                            "effectiveDateTime": "2021-01-21T12:38:37+01:00",
                            "performer": [
                                {
                                    "reference": "https://vonk.fhir.dev.healex.systems/administration/Practitioner/d7d69f9e-3c05-4d31-8a5f-569f8daceb39"
                                },
                                {
                                    "reference": "https://vonk.fhir.dev.healex.systems/administration/Organization/0055f819-5a28-4626-a83f-a098aa9fac80"
                                }
                            ],
                            "valueQuantity": {
                                "system": "http://unitsofmeasure.org",
                                "unit": "kilogram",
                                "code": "kg",
                                "value": 900.0
                            },
                            "id": "50bb8c57-591d-4687-9039-c34bca3a4ed9"
                        },
                        "request": {
                            "method": "PUT",
                            "url": "Observation/50bb8c57-591d-4687-9039-c34bca3a4ed9"
                        }
                    },
                    {
                        "resource": {
                            "resourceType": "Observation",
                            "meta": {
                                "profile": [
                                    "http://uk-koeln.de/fhir/StructureDefinition/Observation/nNGM/ecog"
                                ]
                            },
                            "status": "final",
                            "category": [
                                {
                                    "coding": [
                                        {
                                            "system": "http://terminology.hl7.org/CodeSystem/observation-category",
                                            "code": "survey"
                                        }
                                    ]
                                }
                            ],
                            "code": {
                                "coding": [
                                    {
                                        "system": "http://loinc.org",
                                        "code": "89247-1"
                                    }
                                ]
                            },
                            "subject": {
                                "reference": "https://vonk.fhir.dev.healex.systems/administration/Patient/620c7635-8810-48a7-843e-3b037aa860ae"
                            },
                            "performer": [
                                {
                                    "reference": "https://vonk.fhir.dev.healex.systems/administration/Practitioner/d7d69f9e-3c05-4d31-8a5f-569f8daceb39"
                                },
                                {
                                    "reference": "https://vonk.fhir.dev.healex.systems/administration/Organization/0055f819-5a28-4626-a83f-a098aa9fac80"
                                }
                            ],
                            "valueCodeableConcept": {
                                "coding": [
                                    {
                                        "system": "urn:oid:1.2.276.0.76.3.1.131.1.5.153",
                                        "code": "0",
                                        "display": "0 - normale, uneingeschränkte Aktivität, wie vor der Erkrankung"
                                    }
                                ]
                            },
                            "id": "8a8f7493-6c18-40bb-bd25-e48944cf4462"
                        },
                        "request": {
                            "method": "PUT",
                            "url": "Observation/8a8f7493-6c18-40bb-bd25-e48944cf4462"
                        }
                    },
                    {
                        "resource": {
                            "resourceType": "Observation",
                            "meta": {
                                "profile": [
                                    "http://uk-koeln.de/fhir/StructureDefinition/Observation/nNGM/raucherstatus"
                                ]
                            },
                            "status": "final",
                            "category": [
                                {
                                    "coding": [
                                        {
                                            "system": "http://hl7.org/fhir/observation-category",
                                            "code": "social-history"
                                        }
                                    ]
                                }
                            ],
                            "code": {
                                "coding": [
                                    {
                                        "system": "http://loinc.org",
                                        "code": "72166-2"
                                    }
                                ]
                            },
                            "subject": {
                                "reference": "https://vonk.fhir.dev.healex.systems/administration/Patient/620c7635-8810-48a7-843e-3b037aa860ae"
                            },
                            "performer": [
                                {
                                    "reference": "https://vonk.fhir.dev.healex.systems/administration/Practitioner/d7d69f9e-3c05-4d31-8a5f-569f8daceb39"
                                },
                                {
                                    "reference": "https://vonk.fhir.dev.healex.systems/administration/Organization/0055f819-5a28-4626-a83f-a098aa9fac80"
                                }
                            ],
                            "valueCodeableConcept": {
                                "coding": [
                                    {
                                        "system": "http://loinc.org",
                                        "code": "LA15920-4",
                                        "display": "Former smoker"
                                    }
                                ]
                            },
                            "component": [
                                {
                                    "code": {
                                        "text": "Nichtraucher Seit",
                                        "coding": [
                                            {
                                                "system": "http://ncit.nci.nih.gov",
                                                "code": "C127065"
                                            }
                                        ]
                                    },
                                    "valueDateTime": "2020-01-01"
                                },
                                {
                                    "code": {
                                        "text": "Packungen Pro Jahr",
                                        "coding": [
                                            {
                                                "system": "http://ncit.nci.nih.gov",
                                                "code": "C73993"
                                            }
                                        ]
                                    },
                                    "valueQuantity": {
                                        "unit": "pack years",
                                        "system": "http://unitsofmeasure.org",
                                        "code": "1{pack years}",
                                        "value": 20
                                    }
                                }
                            ],
                            "id": "5cf7f77b-678f-441f-b6ab-fb1f0fd7a9ba"
                        },
                        "request": {
                            "method": "PUT",
                            "url": "Observation/5cf7f77b-678f-441f-b6ab-fb1f0fd7a9ba"
                        }
                    },
                    {
                        "resource": {
                            "resourceType": "Practitioner",
                            "meta": {
                                "profile": [
                                    "http://uk-koeln.de/fhir/StructureDefinition/Practitioner/nNGM"
                                ]
                            },
                            "name": [
                                {
                                    "extension": [
                                        {
                                            "url": "http://hl7.org/fhir/StructureDefinition/data-absent-reason",
                                            "valueCode": "not-asked"
                                        }
                                    ]
                                }
                            ],
                            "telecom": [
                                {
                                    "system": "email",
                                    "value": "foo@bar.com"
                                }
                            ],
                            "identifier": [
                                {
                                    "system": "http://uk-koeln.de/NamingSystem/nNGM/practitionerId",
                                    "value": "230198321"
                                }
                            ],
                            "address": [
                                {
                                    "text": "Kontakt zum nNGM Netzwerkpartner"
                                }
                            ],
                            "id": "d7d69f9e-3c05-4d31-8a5f-569f8daceb39"
                        },
                        "request": {
                            "method": "PUT",
                            "url": "Practitioner/d7d69f9e-3c05-4d31-8a5f-569f8daceb39"
                        }
                    },
                    {
                        "resource": {
                            "resourceType": "Consent",
                            "meta": {
                                "profile": [
                                    "http://uk-koeln.de/fhir/StructureDefinition/Consent/nNGM"
                                ]
                            },
                            "status": "active",
                            "scope": {
                                "coding": [
                                    {
                                        "system": "http://terminology.hl7.org/CodeSystem/consentscope",
                                        "code": "patient-privacy"
                                    }
                                ]
                            },
                            "category": [
                                {
                                    "coding": [
                                        {
                                            "system": "http://loinc.org",
                                            "code": "59284-0"
                                        }
                                    ]
                                }
                            ],
                            "patient": {
                                "reference": "https://vonk.fhir.dev.healex.systems/administration/Patient/620c7635-8810-48a7-843e-3b037aa860ae"
                            },
                            "performer": [
                                {
                                    "reference": "https://vonk.fhir.dev.healex.systems/administration/Organization/0055f819-5a28-4626-a83f-a098aa9fac80"
                                }
                            ],
                            "provision": {
                                "type": "permit"
                            },
                            "policyRule": {
                                "coding": [
                                    {
                                        "system": "http://uk-koeln.de/fhir/CodeSystem/nngm/nngm-consent-policy",
                                        "code": "TE"
                                    }
                                ]
                            },
                            "dateTime": "2020-03-01",
                            "id": "bcfefe27-d69d-4d65-8268-fe167b2fe79f"
                        },
                        "request": {
                            "method": "PUT",
                            "url": "Consent/bcfefe27-d69d-4d65-8268-fe167b2fe79f"
                        }
                    },
                    {
                        "resource": {
                            "resourceType": "Consent",
                            "meta": {
                                "profile": [
                                    "http://uk-koeln.de/fhir/StructureDefinition/Consent/nNGM"
                                ]
                            },
                            "status": "active",
                            "scope": {
                                "coding": [
                                    {
                                        "system": "http://terminology.hl7.org/CodeSystem/consentscope",
                                        "code": "patient-privacy"
                                    }
                                ]
                            },
                            "category": [
                                {
                                    "coding": [
                                        {
                                            "system": "http://loinc.org",
                                            "code": "59284-0"
                                        }
                                    ]
                                }
                            ],
                            "patient": {
                                "reference": "https://vonk.fhir.dev.healex.systems/administration/Patient/620c7635-8810-48a7-843e-3b037aa860ae"
                            },
                            "performer": [
                                {
                                    "reference": "https://vonk.fhir.dev.healex.systems/administration/Organization/0055f819-5a28-4626-a83f-a098aa9fac80"
                                }
                            ],
                            "provision": {
                                "type": "deny"
                            },
                            "policyRule": {
                                "coding": [
                                    {
                                        "system": "http://uk-koeln.de/fhir/CodeSystem/nngm/nngm-consent-policy",
                                        "code": "DS"
                                    }
                                ]
                            },
                            "id": "d1f5a6ae-91fb-4417-92fc-b65fa3bec0f5"
                        },
                        "request": {
                            "method": "PUT",
                            "url": "Consent/d1f5a6ae-91fb-4417-92fc-b65fa3bec0f5"
                        }
                    },
                    {
                        "resource": {
                            "resourceType": "Consent",
                            "meta": {
                                "profile": [
                                    "http://uk-koeln.de/fhir/StructureDefinition/Consent/nNGM"
                                ]
                            },
                            "status": "active",
                            "scope": {
                                "coding": [
                                    {
                                        "system": "http://terminology.hl7.org/CodeSystem/consentscope",
                                        "code": "patient-privacy"
                                    }
                                ]
                            },
                            "category": [
                                {
                                    "coding": [
                                        {
                                            "system": "http://loinc.org",
                                            "code": "59284-0"
                                        }
                                    ]
                                }
                            ],
                            "patient": {
                                "reference": "https://vonk.fhir.dev.healex.systems/administration/Patient/620c7635-8810-48a7-843e-3b037aa860ae"
                            },
                            "performer": [
                                {
                                    "reference": "https://vonk.fhir.dev.healex.systems/administration/Organization/0055f819-5a28-4626-a83f-a098aa9fac80"
                                }
                            ],
                            "provision": {
                                "type": "permit"
                            },
                            "policyRule": {
                                "coding": [
                                    {
                                        "system": "http://uk-koeln.de/fhir/CodeSystem/nngm/nngm-consent-policy",
                                        "code": "1a"
                                    }
                                ]
                            },
                            "dateTime": "2020-01-01",
                            "id": "9cf95bcf-5d2d-4a8b-8223-6a56e599236b"
                        },
                        "request": {
                            "method": "PUT",
                            "url": "Consent/9cf95bcf-5d2d-4a8b-8223-6a56e599236b"
                        }
                    },
                    {
                        "resource": {
                            "resourceType": "Consent",
                            "meta": {
                                "profile": [
                                    "http://uk-koeln.de/fhir/StructureDefinition/Consent/nNGM"
                                ]
                            },
                            "status": "active",
                            "scope": {
                                "coding": [
                                    {
                                        "system": "http://terminology.hl7.org/CodeSystem/consentscope",
                                        "code": "patient-privacy"
                                    }
                                ]
                            },
                            "category": [
                                {
                                    "coding": [
                                        {
                                            "system": "http://loinc.org",
                                            "code": "59284-0"
                                        }
                                    ]
                                }
                            ],
                            "patient": {
                                "reference": "https://vonk.fhir.dev.healex.systems/administration/Patient/620c7635-8810-48a7-843e-3b037aa860ae"
                            },
                            "performer": [
                                {
                                    "reference": "https://vonk.fhir.dev.healex.systems/administration/Organization/0055f819-5a28-4626-a83f-a098aa9fac80"
                                }
                            ],
                            "provision": {
                                "type": "permit"
                            },
                            "policyRule": {
                                "coding": [
                                    {
                                        "system": "http://uk-koeln.de/fhir/CodeSystem/nngm/nngm-consent-policy",
                                        "code": "1b"
                                    }
                                ]
                            },
                            "dateTime": "2020-02-01",
                            "id": "9b851ad1-6538-42ee-bfab-c5ff15315e41"
                        },
                        "request": {
                            "method": "PUT",
                            "url": "Consent/9b851ad1-6538-42ee-bfab-c5ff15315e41"
                        }
                    },
                    {
                        "resource": {
                            "resourceType": "Consent",
                            "meta": {
                                "profile": [
                                    "http://uk-koeln.de/fhir/StructureDefinition/Consent/nNGM"
                                ]
                            },
                            "status": "active",
                            "scope": {
                                "coding": [
                                    {
                                        "system": "http://terminology.hl7.org/CodeSystem/consentscope",
                                        "code": "patient-privacy"
                                    }
                                ]
                            },
                            "category": [
                                {
                                    "coding": [
                                        {
                                            "system": "http://loinc.org",
                                            "code": "59284-0"
                                        }
                                    ]
                                }
                            ],
                            "patient": {
                                "reference": "https://vonk.fhir.dev.healex.systems/administration/Patient/620c7635-8810-48a7-843e-3b037aa860ae"
                            },
                            "performer": [
                                {
                                    "reference": "https://vonk.fhir.dev.healex.systems/administration/Organization/0055f819-5a28-4626-a83f-a098aa9fac80"
                                }
                            ],
                            "provision": {
                                "type": "deny"
                            },
                            "policyRule": {
                                "coding": [
                                    {
                                        "system": "http://uk-koeln.de/fhir/CodeSystem/nngm/nngm-consent-policy",
                                        "code": "2"
                                    }
                                ]
                            },
                            "id": "6c2e8aa4-8d62-4e72-b910-bb431bd69541"
                        },
                        "request": {
                            "method": "PUT",
                            "url": "Consent/6c2e8aa4-8d62-4e72-b910-bb431bd69541"
                        }
                    },
                    {
                        "resource": {
                            "resourceType": "Consent",
                            "meta": {
                                "profile": [
                                    "http://uk-koeln.de/fhir/StructureDefinition/Consent/nNGM"
                                ]
                            },
                            "status": "active",
                            "scope": {
                                "coding": [
                                    {
                                        "system": "http://terminology.hl7.org/CodeSystem/consentscope",
                                        "code": "patient-privacy"
                                    }
                                ]
                            },
                            "category": [
                                {
                                    "coding": [
                                        {
                                            "system": "http://loinc.org",
                                            "code": "59284-0"
                                        }
                                    ]
                                }
                            ],
                            "patient": {
                                "reference": "https://vonk.fhir.dev.healex.systems/administration/Patient/620c7635-8810-48a7-843e-3b037aa860ae"
                            },
                            "provision": {
                                "type": "deny"
                            },
                            "policyRule": {
                                "coding": [
                                    {
                                        "system": "http://uk-koeln.de/fhir/CodeSystem/nngm/nngm-consent-policy",
                                        "code": "MD"
                                    }
                                ]
                            },
                            "id": "368ad519-af04-4cea-90f2-0bf9f2b6ff44",
                            "performer": [
                                {
                                    "reference": "https://vonk.fhir.dev.healex.systems/administration/Organization/0055f819-5a28-4626-a83f-a098aa9fac80"
                                }
                            ]
                        },
                        "request": {
                            "method": "PUT",
                            "url": "Consent/368ad519-af04-4cea-90f2-0bf9f2b6ff44"
                        }
                    },
                    {
                        "resource": {
                            "resourceType": "Consent",
                            "meta": {
                                "profile": [
                                    "http://uk-koeln.de/fhir/StructureDefinition/Consent/nNGM"
                                ]
                            },
                            "status": "active",
                            "scope": {
                                "coding": [
                                    {
                                        "system": "http://terminology.hl7.org/CodeSystem/consentscope",
                                        "code": "patient-privacy"
                                    }
                                ]
                            },
                            "category": [
                                {
                                    "coding": [
                                        {
                                            "system": "http://loinc.org",
                                            "code": "59284-0"
                                        }
                                    ]
                                }
                            ],
                            "patient": {
                                "reference": "https://vonk.fhir.dev.healex.systems/administration/Patient/620c7635-8810-48a7-843e-3b037aa860ae"
                            },
                            "provision": {
                                "type": "permit"
                            },
                            "policyRule": {
                                "coding": [
                                    {
                                        "system": "http://uk-koeln.de/fhir/CodeSystem/nngm/nngm-consent-policy",
                                        "code": "ST"
                                    }
                                ]
                            },
                            "dateTime": "2020-04-01",
                            "id": "6e14c356-e44e-4964-9434-71afbaeca57b",
                            "performer": [
                                {
                                    "reference": "https://vonk.fhir.dev.healex.systems/administration/Organization/0055f819-5a28-4626-a83f-a098aa9fac80"
                                }
                            ]
                        },
                        "request": {
                            "method": "PUT",
                            "url": "Consent/6e14c356-e44e-4964-9434-71afbaeca57b"
                        }
                    },
                    {
                        "resource": {
                            "resourceType": "Consent",
                            "meta": {
                                "profile": [
                                    "http://uk-koeln.de/fhir/StructureDefinition/Consent/nNGM"
                                ]
                            },
                            "status": "active",
                            "scope": {
                                "coding": [
                                    {
                                        "system": "http://terminology.hl7.org/CodeSystem/consentscope",
                                        "code": "patient-privacy"
                                    }
                                ]
                            },
                            "category": [
                                {
                                    "coding": [
                                        {
                                            "system": "http://loinc.org",
                                            "code": "59284-0"
                                        }
                                    ]
                                }
                            ],
                            "patient": {
                                "reference": "https://vonk.fhir.dev.healex.systems/administration/Patient/620c7635-8810-48a7-843e-3b037aa860ae"
                            },
                            "provision": {
                                "type": "deny"
                            },
                            "policyRule": {
                                "coding": [
                                    {
                                        "system": "http://uk-koeln.de/fhir/CodeSystem/nngm/nngm-consent-policy",
                                        "code": "WPI"
                                    }
                                ]
                            },
                            "id": "863f46c3-fcdd-4c7a-a420-0130ac8b07d2",
                            "performer": [
                                {
                                    "reference": "https://vonk.fhir.dev.healex.systems/administration/Organization/0055f819-5a28-4626-a83f-a098aa9fac80"
                                }
                            ]
                        },
                        "request": {
                            "method": "PUT",
                            "url": "Consent/863f46c3-fcdd-4c7a-a420-0130ac8b07d2"
                        }
                    },
                    {
                        "resource": {
                            "resourceType": "Consent",
                            "meta": {
                                "profile": [
                                    "http://uk-koeln.de/fhir/StructureDefinition/Consent/nNGM"
                                ]
                            },
                            "status": "active",
                            "scope": {
                                "coding": [
                                    {
                                        "system": "http://terminology.hl7.org/CodeSystem/consentscope",
                                        "code": "patient-privacy"
                                    }
                                ]
                            },
                            "category": [
                                {
                                    "coding": [
                                        {
                                            "system": "http://loinc.org",
                                            "code": "59284-0"
                                        }
                                    ]
                                }
                            ],
                            "patient": {
                                "reference": "https://vonk.fhir.dev.healex.systems/administration/Patient/620c7635-8810-48a7-843e-3b037aa860ae"
                            },
                            "provision": {
                                "type": "permit"
                            },
                            "policyRule": {
                                "coding": [
                                    {
                                        "system": "http://uk-koeln.de/fhir/CodeSystem/nngm/nngm-consent-policy",
                                        "code": "WP"
                                    }
                                ]
                            },
                            "dateTime": "2020-05-01",
                            "id": "934911e9-b35c-4388-8616-4db4529f5603",
                            "performer": [
                                {
                                    "reference": "https://vonk.fhir.dev.healex.systems/administration/Organization/0055f819-5a28-4626-a83f-a098aa9fac80"
                                }
                            ]
                        },
                        "request": {
                            "method": "PUT",
                            "url": "Consent/934911e9-b35c-4388-8616-4db4529f5603"
                        }
                    },
                    {
                        "resource": {
                            "resourceType": "Consent",
                            "meta": {
                                "profile": [
                                    "http://uk-koeln.de/fhir/StructureDefinition/Consent/nNGM"
                                ]
                            },
                            "status": "active",
                            "scope": {
                                "coding": [
                                    {
                                        "system": "http://terminology.hl7.org/CodeSystem/consentscope",
                                        "code": "patient-privacy"
                                    }
                                ]
                            },
                            "category": [
                                {
                                    "coding": [
                                        {
                                            "system": "http://loinc.org",
                                            "code": "59284-0"
                                        }
                                    ]
                                }
                            ],
                            "patient": {
                                "reference": "https://vonk.fhir.dev.healex.systems/administration/Patient/620c7635-8810-48a7-843e-3b037aa860ae"
                            },
                            "provision": {
                                "type": "permit"
                            },
                            "policyRule": {
                                "coding": [
                                    {
                                        "system": "http://uk-koeln.de/fhir/CodeSystem/nngm/nngm-consent-policy",
                                        "code": "WD"
                                    }
                                ]
                            },
                            "dateTime": "2020-06-01",
                            "id": "0d41057c-a6ab-498c-8501-f09cc3103266",
                            "performer": [
                                {
                                    "reference": "https://vonk.fhir.dev.healex.systems/administration/Organization/0055f819-5a28-4626-a83f-a098aa9fac80"
                                }
                            ]
                        },
                        "request": {
                            "method": "PUT",
                            "url": "Consent/0d41057c-a6ab-498c-8501-f09cc3103266"
                        }
                    },
                    {
                        "resource": {
                            "resourceType": "Consent",
                            "meta": {
                                "profile": [
                                    "http://uk-koeln.de/fhir/StructureDefinition/Consent/nNGM"
                                ]
                            },
                            "status": "active",
                            "scope": {
                                "coding": [
                                    {
                                        "system": "http://terminology.hl7.org/CodeSystem/consentscope",
                                        "code": "patient-privacy"
                                    }
                                ]
                            },
                            "category": [
                                {
                                    "coding": [
                                        {
                                            "system": "http://loinc.org",
                                            "code": "59284-0"
                                        }
                                    ]
                                }
                            ],
                            "patient": {
                                "reference": "https://vonk.fhir.dev.healex.systems/administration/Patient/620c7635-8810-48a7-843e-3b037aa860ae"
                            },
                            "provision": {
                                "type": "permit"
                            },
                            "policyRule": {
                                "coding": [
                                    {
                                        "system": "http://uk-koeln.de/fhir/CodeSystem/nngm/nngm-consent-policy",
                                        "code": "WR"
                                    }
                                ]
                            },
                            "dateTime": "2020-07-01",
                            "id": "61a78398-10d4-4865-95d1-937e976057bd",
                            "performer": [
                                {
                                    "reference": "https://vonk.fhir.dev.healex.systems/administration/Organization/0055f819-5a28-4626-a83f-a098aa9fac80"
                                }
                            ]
                        },
                        "request": {
                            "method": "PUT",
                            "url": "Consent/61a78398-10d4-4865-95d1-937e976057bd"
                        }
                    },
                    {
                        "resource": {
                            "resourceType": "Consent",
                            "meta": {
                                "profile": [
                                    "http://uk-koeln.de/fhir/StructureDefinition/Consent/nNGM"
                                ]
                            },
                            "status": "active",
                            "scope": {
                                "coding": [
                                    {
                                        "system": "http://terminology.hl7.org/CodeSystem/consentscope",
                                        "code": "patient-privacy"
                                    }
                                ]
                            },
                            "category": [
                                {
                                    "coding": [
                                        {
                                            "system": "http://loinc.org",
                                            "code": "59284-0"
                                        }
                                    ]
                                }
                            ],
                            "patient": {
                                "reference": "https://vonk.fhir.dev.healex.systems/administration/Patient/620c7635-8810-48a7-843e-3b037aa860ae"
                            },
                            "provision": {
                                "type": "deny"
                            },
                            "policyRule": {
                                "coding": [
                                    {
                                        "system": "http://uk-koeln.de/fhir/CodeSystem/nngm/nngm-consent-policy",
                                        "code": "WPK"
                                    }
                                ]
                            },
                            "id": "0cb9f080-9089-444f-ac6d-6d563af609af",
                            "performer": [
                                {
                                    "reference": "https://vonk.fhir.dev.healex.systems/administration/Organization/0055f819-5a28-4626-a83f-a098aa9fac80"
                                }
                            ]
                        },
                        "request": {
                            "method": "PUT",
                            "url": "Consent/0cb9f080-9089-444f-ac6d-6d563af609af"
                        }
                    },
                    {
                        "resource": {
                            "resourceType": "Consent",
                            "meta": {
                                "profile": [
                                    "http://uk-koeln.de/fhir/StructureDefinition/Consent/nNGM"
                                ]
                            },
                            "status": "active",
                            "scope": {
                                "coding": [
                                    {
                                        "system": "http://terminology.hl7.org/CodeSystem/consentscope",
                                        "code": "patient-privacy"
                                    }
                                ]
                            },
                            "category": [
                                {
                                    "coding": [
                                        {
                                            "system": "http://loinc.org",
                                            "code": "59284-0"
                                        }
                                    ]
                                }
                            ],
                            "patient": {
                                "reference": "https://vonk.fhir.dev.healex.systems/administration/Patient/620c7635-8810-48a7-843e-3b037aa860ae"
                            },
                            "provision": {
                                "type": "permit"
                            },
                            "policyRule": {
                                "coding": [
                                    {
                                        "system": "http://uk-koeln.de/fhir/CodeSystem/nngm/nngm-consent-policy",
                                        "code": "WK"
                                    }
                                ]
                            },
                            "dateTime": "2020-08-01",
                            "id": "9201b5db-a298-4cf1-8894-c2d26e00df00",
                            "performer": [
                                {
                                    "reference": "https://vonk.fhir.dev.healex.systems/administration/Organization/0055f819-5a28-4626-a83f-a098aa9fac80"
                                }
                            ]
                        },
                        "request": {
                            "method": "PUT",
                            "url": "Consent/9201b5db-a298-4cf1-8894-c2d26e00df00"
                        }
                    },
                    {
                        "resource": {
                            "resourceType": "Consent",
                            "meta": {
                                "profile": [
                                    "http://uk-koeln.de/fhir/StructureDefinition/Consent/nNGM"
                                ]
                            },
                            "status": "active",
                            "scope": {
                                "coding": [
                                    {
                                        "system": "http://terminology.hl7.org/CodeSystem/consentscope",
                                        "code": "patient-privacy"
                                    }
                                ]
                            },
                            "category": [
                                {
                                    "coding": [
                                        {
                                            "system": "http://loinc.org",
                                            "code": "59284-0"
                                        }
                                    ]
                                }
                            ],
                            "patient": {
                                "reference": "https://vonk.fhir.dev.healex.systems/administration/Patient/620c7635-8810-48a7-843e-3b037aa860ae"
                            },
                            "provision": {
                                "type": "permit"
                            },
                            "policyRule": {
                                "coding": [
                                    {
                                        "system": "http://uk-koeln.de/fhir/CodeSystem/nngm/nngm-consent-policy",
                                        "code": "KW"
                                    }
                                ]
                            },
                            "dateTime": "2020-09-01",
                            "id": "2f757581-bd15-4961-8763-d6f86d26468c",
                            "performer": [
                                {
                                    "reference": "https://vonk.fhir.dev.healex.systems/administration/Organization/0055f819-5a28-4626-a83f-a098aa9fac80"
                                }
                            ]
                        },
                        "request": {
                            "method": "PUT",
                            "url": "Consent/2f757581-bd15-4961-8763-d6f86d26468c"
                        }
                    },
                    {
                        "resource": {
                            "resourceType": "Consent",
                            "meta": {
                                "profile": [
                                    "http://uk-koeln.de/fhir/StructureDefinition/Consent/nNGM"
                                ]
                            },
                            "status": "active",
                            "scope": {
                                "coding": [
                                    {
                                        "system": "http://terminology.hl7.org/CodeSystem/consentscope",
                                        "code": "patient-privacy"
                                    }
                                ]
                            },
                            "category": [
                                {
                                    "coding": [
                                        {
                                            "system": "http://loinc.org",
                                            "code": "59284-0"
                                        }
                                    ]
                                }
                            ],
                            "patient": {
                                "reference": "https://vonk.fhir.dev.healex.systems/administration/Patient/620c7635-8810-48a7-843e-3b037aa860ae"
                            },
                            "provision": {
                                "type": "deny"
                            },
                            "policyRule": {
                                "coding": [
                                    {
                                        "system": "http://uk-koeln.de/fhir/CodeSystem/nngm/nngm-consent-policy",
                                        "code": "KE"
                                    }
                                ]
                            },
                            "id": "717e4675-0ddb-4c6c-a4fb-935193750f1c",
                            "performer": [
                                {
                                    "reference": "https://vonk.fhir.dev.healex.systems/administration/Organization/0055f819-5a28-4626-a83f-a098aa9fac80"
                                }
                            ]
                        },
                        "request": {
                            "method": "PUT",
                            "url": "Consent/717e4675-0ddb-4c6c-a4fb-935193750f1c"
                        }
                    },
                    {
                        "resource": {
                            "resourceType": "ServiceRequest",
                            "meta": {
                                "profile": [
                                    "http://uk-koeln.de/fhir/StructureDefinition/ServiceRequest/nNGM/tumorblock"
                                ]
                            },
                            "subject": {
                                "reference": "https://vonk.fhir.dev.healex.systems/administration/Patient/620c7635-8810-48a7-843e-3b037aa860ae"
                            },
                            "status": "active",
                            "intent": "proposal",
                            "reasonReference": [
                                {
                                    "reference": "https://vonk.fhir.dev.healex.systems/administration/Observation/c31e9745-f0ad-479c-b0c2-b6bb41217200"
                                }
                            ],
                            "specimen": [
                                {
                                    "reference": "https://vonk.fhir.dev.healex.systems/administration/Specimen/3afeedb3-79be-413a-9cfe-5b554a6ceb88"
                                }
                            ],
                            "code": {
                                "coding": [
                                    {
                                        "system": "http://uk-koeln.de/fhir/CodeSystem/nngm/anforderung-code",
                                        "code": "Einzeluntersuchung"
                                    }
                                ]
                            },
                            "orderDetail": [
                                {
                                    "coding": [
                                        {
                                            "system": "http://ncit.nci.nih.gov",
                                            "code": "C128554",
                                            "display": "PD-L1"
                                        }
                                    ]
                                },
                                {
                                    "coding": [
                                        {
                                            "system": "http://ncit.nci.nih.gov",
                                            "code": "C38184",
                                            "display": "ALK"
                                        }
                                    ]
                                },
                                {
                                    "coding": [
                                        {
                                            "system": "http://ncit.nci.nih.gov",
                                            "code": "C148329",
                                            "display": "MET1"
                                        }
                                    ]
                                },
                                {
                                    "coding": [
                                        {
                                            "system": "http://ncit.nci.nih.gov",
                                            "code": "C18399",
                                            "display": "ROS1"
                                        }
                                    ]
                                },
                                {
                                    "coding": [
                                        {
                                            "system": "http://ncit.nci.nih.gov",
                                            "code": "C18363",
                                            "display": "BRAF"
                                        }
                                    ]
                                },
                                {
                                    "coding": [
                                        {
                                            "system": "http://ncit.nci.nih.gov",
                                            "code": "C17757",
                                            "display": "EGFR"
                                        }
                                    ]
                                },
                                {
                                    "coding": [
                                        {
                                            "system": "http://ncit.nci.nih.gov",
                                            "code": "C25785",
                                            "display": "KRAS"
                                        }
                                    ]
                                }
                            ],
                            "performer": [
                                {
                                    "display": "Grüß Gott",
                                    "reference": "https://vonk.fhir.dev.healex.systems/administration/Grüß Gott"
                                }
                            ],
                            "doNotPerform": false,
                            "extension": [
                                {
                                    "url": "http://uk-koeln.de/fhir/StructureDefinition/Extension/nNGM/grundEntfallBlockAnforderung",
                                    "valueCodeableConcept": {
                                        "coding": [
                                            {
                                                "system": "http://uk-koeln.de/fhir/CodeSystem/nngm/grundEntfallBlockAnforderung",
                                                "code": "innerePathologie"
                                            }
                                        ]
                                    }
                                }
                            ],
                            "id": "5c45b8b0-08f7-4ee1-af09-02f0367be5a2",
                            "requester": {
                                "reference": "https://vonk.fhir.dev.healex.systems/administration/Organization/e96fcbf7-fefa-4bcd-8338-461bbad8ce0d"
                            }
                        },
                        "request": {
                            "method": "PUT",
                            "url": "ServiceRequest/5c45b8b0-08f7-4ee1-af09-02f0367be5a2"
                        }
                    },
                    {
                        "resource": {
                            "resourceType": "ServiceRequest",
                            "meta": {
                                "profile": [
                                    "http://uk-koeln.de/fhir/StructureDefinition/ServiceRequest/nNGM/testung"
                                ]
                            },
                            "subject": {
                                "reference": "https://vonk.fhir.dev.healex.systems/administration/Patient/620c7635-8810-48a7-843e-3b037aa860ae"
                            },
                            "status": "active",
                            "intent": "proposal",
                            "code": {
                                "coding": [
                                    {
                                        "system": "http://uk-koeln.de/fhir/CodeSystem/nngm/anforderung-code",
                                        "code": "Liquid Biopsy"
                                    }
                                ]
                            },
                            "category": [
                                {
                                    "coding": [
                                        {
                                            "system": "http://ncit.nci.nih.gov",
                                            "code": "C12434",
                                            "display": "Blutdiagnostik (Liquid Biopsy)"
                                        }
                                    ]
                                }
                            ],
                            "reasonReference": [
                                {
                                    "reference": "https://vonk.fhir.dev.healex.systems/administration/Observation/cbf56953-9418-41cb-bfa7-a6675a6f62e0"
                                }
                            ],
                            "specimen": [
                                {
                                    "reference": "https://vonk.fhir.dev.healex.systems/administration/Specimen/1e1c29c8-225e-449e-b819-e85fc8390213"
                                }
                            ],
                            "orderDetail": [
                                {
                                    "coding": [
                                        {
                                            "system": "http://ncit.nci.nih.gov",
                                            "code": "C19391",
                                            "display": "Resistenztestung"
                                        }
                                    ]
                                }
                            ],
                            "extension": [
                                {
                                    "url": "http://uk-koeln.de/fhir/StructureDefinition/Extension/nNGM/GrundFehlendeBiopsy",
                                    "valueCodeableConcept": {
                                        "coding": [
                                            {
                                                "system": "http://uk-koeln.de/fhir/CodeSystem/nNGM/grundfehlendeBiopsie",
                                                "code": "RA",
                                                "display": "Reduzierter Allgemeinzustand"
                                            }
                                        ]
                                    }
                                }
                            ],
                            "id": "a2cf0932-805a-4835-bcf1-3c865cb241c5",
                            "requester": {
                                "reference": "https://vonk.fhir.dev.healex.systems/administration/Organization/e96fcbf7-fefa-4bcd-8338-461bbad8ce0d"
                            }
                        },
                        "request": {
                            "method": "PUT",
                            "url": "ServiceRequest/a2cf0932-805a-4835-bcf1-3c865cb241c5"
                        }
                    },
                    {
                        "resource": {
                            "resourceType": "Specimen",
                            "meta": {
                                "profile": [
                                    "http://uk-koeln.de/fhir/StructureDefinition/Specimen/nNGM"
                                ]
                            },
                            "subject": {
                                "reference": "https://vonk.fhir.dev.healex.systems/administration/Patient/620c7635-8810-48a7-843e-3b037aa860ae"
                            },
                            "type": {
                                "coding": [
                                    {
                                        "system": "http://snomed.info/sct",
                                        "version": "http://snomed.info/sct/900000000000207008",
                                        "_code": {
                                            "extension": [
                                                {
                                                    "url": "http://hl7.org/fhir/StructureDefinition/data-absent-reason",
                                                    "valueCode": "not-asked"
                                                }
                                            ]
                                        }
                                    }
                                ]
                            },
                            "identifier": [
                                {
                                    "system": "http://uk-koeln.de/NamingSystem/nNGM/biopsienummer",
                                    "value": "Biopsie-ID"
                                }
                            ],
                            "collection": {
                                "collectedDateTime": "2020-02-01"
                            },
                            "extension": [
                                {
                                    "url": "http://uk-koeln.de/fhir/StructureDefinition/Extension/nNGM/aufenthaltsart",
                                    "valueCodeableConcept": {
                                        "coding": [
                                            {
                                                "system": "http://hl7.org/fhir/v3/ActCode",
                                                "code": "IMP",
                                                "display": "inpatient encounter"
                                            }
                                        ]
                                    }
                                }
                            ],
                            "id": "3afeedb3-79be-413a-9cfe-5b554a6ceb88",
                            "request": [
                                {
                                    "reference": "https://vonk.fhir.dev.healex.systems/administration/ServiceRequest/5c45b8b0-08f7-4ee1-af09-02f0367be5a2"
                                }
                            ]
                        },
                        "request": {
                            "method": "PUT",
                            "url": "Specimen/3afeedb3-79be-413a-9cfe-5b554a6ceb88"
                        }
                    },
                    {
                        "resource": {
                            "resourceType": "Specimen",
                            "meta": {
                                "profile": [
                                    "http://uk-koeln.de/fhir/StructureDefinition/Specimen/nNGM"
                                ]
                            },
                            "subject": {
                                "reference": "https://vonk.fhir.dev.healex.systems/administration/Patient/620c7635-8810-48a7-843e-3b037aa860ae"
                            },
                            "type": {
                                "coding": [
                                    {
                                        "system": "http://snomed.info/sct",
                                        "version": "http://snomed.info/sct/900000000000207008",
                                        "_code": {
                                            "extension": [
                                                {
                                                    "url": "http://hl7.org/fhir/StructureDefinition/data-absent-reason",
                                                    "valueCode": "not-asked"
                                                }
                                            ]
                                        }
                                    }
                                ]
                            },
                            "identifier": [
                                {
                                    "system": "http://uk-koeln.de/NamingSystem/nNGM/biopsienummer",
                                    "value": "Biopsie-ID"
                                }
                            ],
                            "collection": {
                                "collectedDateTime": "1998-05-04"
                            },
                            "extension": [
                                {
                                    "url": "http://uk-koeln.de/fhir/StructureDefinition/Extension/nNGM/aufenthaltsart",
                                    "valueCodeableConcept": {
                                        "coding": [
                                            {
                                                "system": "http://hl7.org/fhir/v3/ActCode",
                                                "code": "IMP",
                                                "display": "inpatient encounter"
                                            }
                                        ]
                                    }
                                }
                            ],
                            "id": "1e1c29c8-225e-449e-b819-e85fc8390213",
                            "request": [
                                {
                                    "reference": "https://vonk.fhir.dev.healex.systems/administration/ServiceRequest/a2cf0932-805a-4835-bcf1-3c865cb241c5"
                                }
                            ]
                        },
                        "request": {
                            "method": "PUT",
                            "url": "Specimen/1e1c29c8-225e-449e-b819-e85fc8390213"
                        }
                    },
                    {
                        "resource": {
                            "resourceType": "Observation",
                            "meta": {
                                "profile": [
                                    "http://uk-koeln.de/fhir/StructureDefinition/Observation/nNGM/histo-vorbefund"
                                ]
                            },
                            "subject": {
                                "reference": "https://vonk.fhir.dev.healex.systems/administration/Patient/620c7635-8810-48a7-843e-3b037aa860ae"
                            },
                            "category": [
                                {
                                    "coding": [
                                        {
                                            "system": "http://terminology.hl7.org/CodeSystem/observation-category",
                                            "code": "laboratory"
                                        }
                                    ]
                                }
                            ],
                            "status": "final",
                            "code": {
                                "coding": [
                                    {
                                        "system": "http://ncit.nci.nih.gov",
                                        "code": "C19165"
                                    }
                                ]
                            },
                            "valueCodeableConcept": {
                                "coding": [
                                    {
                                        "system": "urn:oid:2.16.840.1.113883.6.43.1",
                                        "code": "8072/3",
                                        "display": "8072/3"
                                    }
                                ]
                            },
                            "id": "c31e9745-f0ad-479c-b0c2-b6bb41217200",
                            "specimen": {
                                "reference": "https://vonk.fhir.dev.healex.systems/administration/Specimen/3afeedb3-79be-413a-9cfe-5b554a6ceb88"
                            }
                        },
                        "request": {
                            "method": "PUT",
                            "url": "Observation/c31e9745-f0ad-479c-b0c2-b6bb41217200"
                        }
                    },
                    {
                        "resource": {
                            "resourceType": "Observation",
                            "meta": {
                                "profile": [
                                    "http://uk-koeln.de/fhir/StructureDefinition/Observation/nNGM/histo-vorbefund"
                                ]
                            },
                            "subject": {
                                "reference": "https://vonk.fhir.dev.healex.systems/administration/Patient/620c7635-8810-48a7-843e-3b037aa860ae"
                            },
                            "status": "final",
                            "code": {
                                "coding": [
                                    {
                                        "system": "http://ncit.nci.nih.gov",
                                        "code": "C19165"
                                    }
                                ]
                            },
                            "category": [
                                {
                                    "coding": [
                                        {
                                            "system": "http://terminology.hl7.org/CodeSystem/observation-category",
                                            "code": "laboratory"
                                        }
                                    ]
                                }
                            ],
                            "valueCodeableConcept": {
                                "coding": [
                                    {
                                        "system": "http://ncit.nci.nih.gov",
                                        "code": "C3812",
                                        "display": "CUP"
                                    }
                                ]
                            },
                            "id": "cbf56953-9418-41cb-bfa7-a6675a6f62e0",
                            "specimen": {
                                "reference": "https://vonk.fhir.dev.healex.systems/administration/Specimen/1e1c29c8-225e-449e-b819-e85fc8390213"
                            }
                        },
                        "request": {
                            "method": "PUT",
                            "url": "Observation/cbf56953-9418-41cb-bfa7-a6675a6f62e0"
                        }
                    },
                    {
                        "resource": {
                            "resourceType": "Organization",
                            "meta": {
                                "profile": [
                                    "http://clinicalsite.org/fhir/StructureDefinition/organizationalunit"
                                ]
                            },
                            "address": [
                                {
                                    "use": "work",
                                    "type": "postal",
                                    "text": "FA für Pathologie H. Günzl,\r\nEppendorfer Weg 111,\r\n20259 Hamburg"
                                }
                            ],
                            "name": "FA für Pathologie H. Günzl",
                            "id": "e96fcbf7-fefa-4bcd-8338-461bbad8ce0d"
                        },
                        "request": {
                            "method": "PUT",
                            "url": "Organization/e96fcbf7-fefa-4bcd-8338-461bbad8ce0d"
                        }
                    },
                    {
                        "resource": {
                            "resourceType": "Observation",
                            "meta": {
                                "profile": [
                                    "http://uk-koeln.de/fhir/StructureDefinition/Observation/nNGM/tumorstadium"
                                ]
                            },
                            "status": "final",
                            "category": [
                                {
                                    "coding": [
                                        {
                                            "system": "http://hl7.org/fhir/observation-category",
                                            "code": "survey"
                                        }
                                    ]
                                }
                            ],
                            "code": {
                                "coding": [
                                    {
                                        "system": "http://loinc.org",
                                        "code": "75621-3",
                                        "display": "TNM pathologic staging after surgery panel"
                                    }
                                ]
                            },
                            "subject": {
                                "reference": "https://vonk.fhir.dev.healex.systems/administration/Patient/620c7635-8810-48a7-843e-3b037aa860ae"
                            },
                            "extension": [
                                {
                                    "url": "http://uk-koeln.de/fhir/StructureDefinition/Extension/nngm/tnm-erstdiagnose",
                                    "valueBoolean": true
                                },
                                {
                                    "url": "http://uk-koeln.de/fhir/StructureDefinition/Extension/nngm/tnm-kurativ-operabel",
                                    "valueBoolean": false
                                }
                            ],
                            "effectiveDateTime": "2020-09-08",
                            "component": [
                                {
                                    "code": {
                                        "coding": [
                                            {
                                                "system": "http://loinc.org",
                                                "code": "59479-6"
                                            }
                                        ]
                                    },
                                    "valueBoolean": true
                                },
                                {
                                    "code": {
                                        "coding": [
                                            {
                                                "system": "http://loinc.org",
                                                "code": "21905-5"
                                            }
                                        ]
                                    },
                                    "valueCodeableConcept": {
                                        "text": "T slice",
                                        "coding": [
                                            {
                                                "system": "urn:oid:2.16.840.1.113883.15.16",
                                                "code": "T1c"
                                            }
                                        ]
                                    },
                                    "extension": [
                                        {
                                            "url": "http://uk-koeln.de/fhir/StructureDefinition/Extension/nngm/tnm-praefix-cpu",
                                            "valueCodeableConcept": {
                                                "text": "T-praefix slice",
                                                "coding": [
                                                    {
                                                        "system": "urn:oid:2.16.840.1.113883.15.16",
                                                        "code": "p - histopathologisch gesichert"
                                                    }
                                                ]
                                            }
                                        },
                                        {
                                            "url": "http://uk-koeln.de/fhir/StructureDefinition/Extension/nngm/tnm-suffix-miscy",
                                            "valueCodeableConcept": {
                                                "text": "T-suffix slice",
                                                "coding": [
                                                    {
                                                        "system": "urn:oid:2.16.840.1.113883.15.16",
                                                        "code": "cy - zytologisch"
                                                    }
                                                ]
                                            }
                                        }
                                    ]
                                },
                                {
                                    "code": {
                                        "coding": [
                                            {
                                                "system": "http://loinc.org",
                                                "code": "21906-3"
                                            }
                                        ]
                                    },
                                    "valueCodeableConcept": {
                                        "text": "N slice",
                                        "coding": [
                                            {
                                                "system": "urn:oid:2.16.840.1.113883.15.16",
                                                "code": "N1c"
                                            }
                                        ]
                                    },
                                    "extension": [
                                        {
                                            "url": "http://uk-koeln.de/fhir/StructureDefinition/Extension/nngm/tnm-praefix-cpu",
                                            "valueCodeableConcept": {
                                                "coding": [
                                                    {
                                                        "system": "urn:oid:2.16.840.1.113883.15.16",
                                                        "code": "p - histopathologisch gesichert"
                                                    }
                                                ],
                                                "text": "N-praefix slice"
                                            }
                                        }
                                    ]
                                },
                                {
                                    "code": {
                                        "coding": [
                                            {
                                                "system": "http://loinc.org",
                                                "code": "21907-1"
                                            }
                                        ]
                                    },
                                    "valueCodeableConcept": {
                                        "text": "M slice",
                                        "coding": [
                                            {
                                                "system": "urn:oid:2.16.840.1.113883.15.16",
                                                "code": "M1a"
                                            }
                                        ]
                                    },
                                    "extension": [
                                        {
                                            "url": "http://uk-koeln.de/fhir/StructureDefinition/Extension/nngm/tnm-praefix-cpu",
                                            "valueCodeableConcept": {
                                                "coding": [
                                                    {
                                                        "system": "urn:oid:2.16.840.1.113883.15.16",
                                                        "code": "u - Ultraschalldiagnostik"
                                                    }
                                                ],
                                                "text": "M-praefix slice"
                                            }
                                        }
                                    ]
                                }
                            ],
                            "id": "7ef97554-dbab-4a47-a747-d2e32a381109",
                            "valueCodeableConcept": {
                                "coding": [
                                    {
                                        "system": "urn:oid:2.16.840.1.113883.15.16",
                                        "code": "IA3"
                                    }
                                ]
                            }
                        },
                        "request": {
                            "method": "PUT",
                            "url": "Observation/7ef97554-dbab-4a47-a747-d2e32a381109"
                        }
                    },
                    {
                        "resource": {
                            "resourceType": "Observation",
                            "meta": {
                                "profile": [
                                    "http://uk-koeln.de/fhir/StructureDefinition/Observation/nNGM/progress-relapse"
                                ]
                            },
                            "status": "final",
                            "category": [
                                {
                                    "coding": [
                                        {
                                            "system": "http://terminology.hl7.org/CodeSystem/observation-category",
                                            "code": "survey"
                                        }
                                    ]
                                }
                            ],
                            "code": {
                                "coding": [
                                    {
                                        "system": "http://ncit.nci.nih.gov",
                                        "code": "C25630"
                                    }
                                ]
                            },
                            "subject": {
                                "reference": "https://vonk.fhir.dev.healex.systems/administration/Patient/620c7635-8810-48a7-843e-3b037aa860ae"
                            },
                            "valueBoolean": true,
                            "effectiveDateTime": "2020-02-02",
                            "id": "36c26d8a-77fb-45a1-85e9-02a5d14563b1"
                        },
                        "request": {
                            "method": "PUT",
                            "url": "Observation/36c26d8a-77fb-45a1-85e9-02a5d14563b1"
                        }
                    },
                    {
                        "resource": {
                            "resourceType": "Observation",
                            "meta": {
                                "profile": [
                                    "http://uk-koeln.de/fhir/StructureDefinition/Observation/nNGM/tki-resistenz-egfr"
                                ]
                            },
                            "status": "final",
                            "category": [
                                {
                                    "coding": [
                                        {
                                            "system": "http://ncit.nci.nih.gov",
                                            "code": "C1967"
                                        }
                                    ]
                                }
                            ],
                            "code": {
                                "coding": [
                                    {
                                        "system": "http://ncit.nci.nih.gov",
                                        "code": "C134501"
                                    }
                                ]
                            },
                            "subject": {
                                "reference": "https://vonk.fhir.dev.healex.systems/administration/Patient/620c7635-8810-48a7-843e-3b037aa860ae"
                            },
                            "component": [
                                {
                                    "valueString": "EGFR Exon",
                                    "code": {
                                        "coding": [
                                            {
                                                "system": "http://ncit.nci.nih.gov",
                                                "code": "C13231"
                                            }
                                        ]
                                    }
                                },
                                {
                                    "valueString": "EGFR HGVS",
                                    "code": {
                                        "coding": [
                                            {
                                                "system": "http://loinc.org",
                                                "code": "48004-6"
                                            }
                                        ]
                                    }
                                },
                                {
                                    "valueString": "EGFR HGVP",
                                    "code": {
                                        "coding": [
                                            {
                                                "system": "http://loinc.org",
                                                "code": "48005-3"
                                            }
                                        ]
                                    }
                                },
                                {
                                    "code": {
                                        "coding": [
                                            {
                                                "system": "http://ncit.nci.nih.gov",
                                                "code": "C62721"
                                            }
                                        ]
                                    },
                                    "valueCodeableConcept": {
                                        "text": "EGFR Therapie 1"
                                    },
                                    "extension": [
                                        {
                                            "url": "http://uk-koeln.de/fhir/StructureDefinition/Extension/nNGM/observation-component-order",
                                            "valueInteger": 1
                                        }
                                    ]
                                },
                                {
                                    "code": {
                                        "coding": [
                                            {
                                                "system": "http://ncit.nci.nih.gov",
                                                "code": "C62721"
                                            }
                                        ]
                                    },
                                    "valueCodeableConcept": {
                                        "text": "EGFR Therapie 2"
                                    },
                                    "extension": [
                                        {
                                            "url": "http://uk-koeln.de/fhir/StructureDefinition/Extension/nNGM/observation-component-order",
                                            "valueInteger": 2
                                        }
                                    ]
                                },
                                {
                                    "code": {
                                        "coding": [
                                            {
                                                "system": "http://ncit.nci.nih.gov",
                                                "code": "C62721"
                                            }
                                        ]
                                    },
                                    "valueCodeableConcept": {
                                        "text": "EGFR Therapie 3"
                                    },
                                    "extension": [
                                        {
                                            "url": "http://uk-koeln.de/fhir/StructureDefinition/Extension/nNGM/observation-component-order",
                                            "valueInteger": 3
                                        }
                                    ]
                                },
                                {
                                    "code": {
                                        "coding": [
                                            {
                                                "system": "http://ncit.nci.nih.gov",
                                                "code": "C62721"
                                            }
                                        ]
                                    },
                                    "valueCodeableConcept": {
                                        "text": "EGFR Therapie 4"
                                    },
                                    "extension": [
                                        {
                                            "url": "http://uk-koeln.de/fhir/StructureDefinition/Extension/nNGM/observation-component-order",
                                            "valueInteger": 4
                                        }
                                    ]
                                }
                            ],
                            "effectiveDateTime": "2020-03-03",
                            "id": "6f6a5e29-7474-42d0-82c0-4fd251158eb7"
                        },
                        "request": {
                            "method": "PUT",
                            "url": "Observation/6f6a5e29-7474-42d0-82c0-4fd251158eb7"
                        }
                    },
                    {
                        "resource": {
                            "resourceType": "Observation",
                            "meta": {
                                "profile": [
                                    "http://uk-koeln.de/fhir/StructureDefinition/Observation/nNGM/tki-resistenz-alk"
                                ]
                            },
                            "status": "final",
                            "category": [
                                {
                                    "coding": [
                                        {
                                            "system": "http://ncit.nci.nih.gov",
                                            "code": "C1967"
                                        }
                                    ]
                                }
                            ],
                            "code": {
                                "coding": [
                                    {
                                        "system": "http://ncit.nci.nih.gov",
                                        "code": "C142114"
                                    }
                                ]
                            },
                            "subject": {
                                "reference": "https://vonk.fhir.dev.healex.systems/administration/Patient/620c7635-8810-48a7-843e-3b037aa860ae"
                            },
                            "component": [
                                {
                                    "code": {
                                        "coding": [
                                            {
                                                "system": "http://ncit.nci.nih.gov",
                                                "code": "C62721"
                                            }
                                        ]
                                    },
                                    "valueCodeableConcept": {
                                        "text": "ALK Therapie 1"
                                    },
                                    "extension": [
                                        {
                                            "url": "http://uk-koeln.de/fhir/StructureDefinition/Extension/nNGM/observation-component-order",
                                            "valueInteger": 1
                                        }
                                    ]
                                },
                                {
                                    "code": {
                                        "coding": [
                                            {
                                                "system": "http://ncit.nci.nih.gov",
                                                "code": "C62721"
                                            }
                                        ]
                                    },
                                    "valueCodeableConcept": {
                                        "text": "ALK Therapie 2"
                                    },
                                    "extension": [
                                        {
                                            "url": "http://uk-koeln.de/fhir/StructureDefinition/Extension/nNGM/observation-component-order",
                                            "valueInteger": 2
                                        }
                                    ]
                                },
                                {
                                    "code": {
                                        "coding": [
                                            {
                                                "system": "http://ncit.nci.nih.gov",
                                                "code": "C62721"
                                            }
                                        ]
                                    },
                                    "valueCodeableConcept": {
                                        "text": "ALK Therapie 3"
                                    },
                                    "extension": [
                                        {
                                            "url": "http://uk-koeln.de/fhir/StructureDefinition/Extension/nNGM/observation-component-order",
                                            "valueInteger": 3
                                        }
                                    ]
                                },
                                {
                                    "code": {
                                        "coding": [
                                            {
                                                "system": "http://ncit.nci.nih.gov",
                                                "code": "C62721"
                                            }
                                        ]
                                    },
                                    "valueCodeableConcept": {
                                        "text": "ALK Therapie 4"
                                    },
                                    "extension": [
                                        {
                                            "url": "http://uk-koeln.de/fhir/StructureDefinition/Extension/nNGM/observation-component-order",
                                            "valueInteger": 4
                                        }
                                    ]
                                },
                                {
                                    "code": {
                                        "coding": [
                                            {
                                                "system": "http://ncit.nci.nih.gov",
                                                "code": "C28510"
                                            }
                                        ]
                                    },
                                    "valueString": "ALK Fusion"
                                }
                            ],
                            "effectiveDateTime": "2020-03-03",
                            "id": "a21461ee-c7fe-4c3b-bc07-7ba8f05abedf"
                        },
                        "request": {
                            "method": "PUT",
                            "url": "Observation/a21461ee-c7fe-4c3b-bc07-7ba8f05abedf"
                        }
                    },
                    {
                        "resource": {
                            "resourceType": "Observation",
                            "meta": {
                                "profile": [
                                    "http://uk-koeln.de/fhir/StructureDefinition/Observation/nNGM/tki-resistenz-ros1"
                                ]
                            },
                            "status": "final",
                            "category": [
                                {
                                    "coding": [
                                        {
                                            "system": "http://ncit.nci.nih.gov",
                                            "code": "C1967"
                                        }
                                    ]
                                }
                            ],
                            "code": {
                                "coding": [
                                    {
                                        "system": "http://ncit.nci.nih.gov",
                                        "code": "C131071"
                                    }
                                ]
                            },
                            "subject": {
                                "reference": "https://vonk.fhir.dev.healex.systems/administration/Patient/620c7635-8810-48a7-843e-3b037aa860ae"
                            },
                            "component": [
                                {
                                    "code": {
                                        "coding": [
                                            {
                                                "system": "http://ncit.nci.nih.gov",
                                                "code": "C62721"
                                            }
                                        ]
                                    },
                                    "valueCodeableConcept": {
                                        "text": "ROS1 Therapie 1"
                                    },
                                    "extension": [
                                        {
                                            "url": "http://uk-koeln.de/fhir/StructureDefinition/Extension/nNGM/observation-component-order",
                                            "valueInteger": 1
                                        }
                                    ]
                                },
                                {
                                    "code": {
                                        "coding": [
                                            {
                                                "system": "http://ncit.nci.nih.gov",
                                                "code": "C62721"
                                            }
                                        ]
                                    },
                                    "valueCodeableConcept": {
                                        "text": "ROS1 Therapie 2"
                                    },
                                    "extension": [
                                        {
                                            "url": "http://uk-koeln.de/fhir/StructureDefinition/Extension/nNGM/observation-component-order",
                                            "valueInteger": 2
                                        }
                                    ]
                                },
                                {
                                    "code": {
                                        "coding": [
                                            {
                                                "system": "http://ncit.nci.nih.gov",
                                                "code": "C62721"
                                            }
                                        ]
                                    },
                                    "valueCodeableConcept": {
                                        "text": "ROS1 Therapie 3"
                                    },
                                    "extension": [
                                        {
                                            "url": "http://uk-koeln.de/fhir/StructureDefinition/Extension/nNGM/observation-component-order",
                                            "valueInteger": 3
                                        }
                                    ]
                                },
                                {
                                    "code": {
                                        "coding": [
                                            {
                                                "system": "http://ncit.nci.nih.gov",
                                                "code": "C62721"
                                            }
                                        ]
                                    },
                                    "valueCodeableConcept": {
                                        "text": "ROS1 Therapie 4"
                                    },
                                    "extension": [
                                        {
                                            "url": "http://uk-koeln.de/fhir/StructureDefinition/Extension/nNGM/observation-component-order",
                                            "valueInteger": 4
                                        }
                                    ]
                                },
                                {
                                    "code": {
                                        "coding": [
                                            {
                                                "system": "http://ncit.nci.nih.gov",
                                                "code": "C28510"
                                            }
                                        ]
                                    },
                                    "valueString": "ROS1 FUsion"
                                }
                            ],
                            "effectiveDateTime": "2020-03-03",
                            "id": "39830960-1ec4-4bd3-99f3-a39730f64067"
                        },
                        "request": {
                            "method": "PUT",
                            "url": "Observation/39830960-1ec4-4bd3-99f3-a39730f64067"
                        }
                    },
                    {
                        "resource": {
                            "resourceType": "ServiceRequest",
                            "meta": {
                                "profile": [
                                    "http://uk-koeln.de/fhir/StructureDefinition/ServiceRequest/nNGM/testung"
                                ]
                            },
                            "subject": {
                                "reference": "https://vonk.fhir.dev.healex.systems/administration/Patient/620c7635-8810-48a7-843e-3b037aa860ae"
                            },
                            "status": "active",
                            "intent": "proposal",
                            "code": {
                                "coding": [
                                    {
                                        "system": "http://uk-koeln.de/fhir/CodeSystem/nngm/anforderung-code",
                                        "code": "Liquid Biopsy"
                                    }
                                ]
                            },
                            "category": [
                                {
                                    "coding": [
                                        {
                                            "system": "http://ncit.nci.nih.gov",
                                            "code": "C12434",
                                            "display": "Blutdiagnostik (Liquid Biopsy)"
                                        }
                                    ]
                                }
                            ],
                            "reasonReference": [
                                {
                                    "reference": "https://vonk.fhir.dev.healex.systems/administration/Observation/e9d71fdc-9d0c-4875-8510-2090d8aa80f4"
                                }
                            ],
                            "specimen": [
                                {
                                    "reference": "https://vonk.fhir.dev.healex.systems/administration/Specimen/ca339653-b86a-4ab2-b71f-f07bc2e19967"
                                }
                            ],
                            "orderDetail": [
                                {
                                    "coding": [
                                        {
                                            "system": "http://ncit.nci.nih.gov",
                                            "code": "C19391",
                                            "display": "Resistenztestung"
                                        }
                                    ]
                                }
                            ],
                            "extension": [
                                {
                                    "url": "http://uk-koeln.de/fhir/StructureDefinition/Extension/nNGM/GrundFehlendeBiopsy",
                                    "valueCodeableConcept": {
                                        "coding": [
                                            {
                                                "system": "http://uk-koeln.de/fhir/CodeSystem/nNGM/grundfehlendeBiopsie",
                                                "code": "FT",
                                                "display": "Fehlende Tumormanifestation, die einer Biopsie zugänglich wäre"
                                            }
                                        ]
                                    }
                                },
                                {
                                    "url": "http://uk-koeln.de/fhir/StructureDefinition/Extension/nNGM/GrundFehlendeBiopsy",
                                    "valueCodeableConcept": {
                                        "coding": [
                                            {
                                                "system": "http://uk-koeln.de/fhir/CodeSystem/nNGM/grundfehlendeBiopsie",
                                                "code": "RA",
                                                "display": "Reduzierter Allgemeinzustand"
                                            }
                                        ]
                                    }
                                },
                                {
                                    "url": "http://uk-koeln.de/fhir/StructureDefinition/Extension/nNGM/GrundFehlendeBiopsy",
                                    "valueCodeableConcept": {
                                        "coding": [
                                            {
                                                "system": "http://uk-koeln.de/fhir/CodeSystem/nNGM/grundfehlendeBiopsie",
                                                "code": "UR",
                                                "display": "Unzumutbares Risikos einer Biopsie bzw. zu erwartende Komplikationen"
                                            }
                                        ]
                                    }
                                },
                                {
                                    "url": "http://uk-koeln.de/fhir/StructureDefinition/Extension/nNGM/GrundFehlendeBiopsy",
                                    "valueCodeableConcept": {
                                        "coding": [
                                            {
                                                "system": "http://uk-koeln.de/fhir/CodeSystem/nNGM/grundfehlendeBiopsie",
                                                "code": "AP",
                                                "display": "Ablehnung seitens Patient(in)"
                                            }
                                        ]
                                    }
                                }
                            ],
                            "id": "552f9267-6811-4983-8134-58ffe229448f",
                            "requester": {
                                "reference": "https://vonk.fhir.dev.healex.systems/administration/Organization/570d5a2d-fd21-4e3f-805a-e9c97e9bc97a"
                            }
                        },
                        "request": {
                            "method": "PUT",
                            "url": "ServiceRequest/552f9267-6811-4983-8134-58ffe229448f"
                        }
                    },
                    {
                        "resource": {
                            "resourceType": "Specimen",
                            "meta": {
                                "profile": [
                                    "http://uk-koeln.de/fhir/StructureDefinition/Specimen/nNGM"
                                ]
                            },
                            "subject": {
                                "reference": "https://vonk.fhir.dev.healex.systems/administration/Patient/620c7635-8810-48a7-843e-3b037aa860ae"
                            },
                            "type": {
                                "coding": [
                                    {
                                        "system": "http://snomed.info/sct",
                                        "version": "http://snomed.info/sct/900000000000207008",
                                        "_code": {
                                            "extension": [
                                                {
                                                    "url": "http://hl7.org/fhir/StructureDefinition/data-absent-reason",
                                                    "valueCode": "not-asked"
                                                }
                                            ]
                                        }
                                    }
                                ]
                            },
                            "identifier": [
                                {
                                    "system": "http://uk-koeln.de/NamingSystem/nNGM/biopsienummer",
                                    "value": "Biopsie-ID BlutDiagnostik"
                                }
                            ],
                            "collection": {
                                "collectedDateTime": "2020-01-13"
                            },
                            "extension": [
                                {
                                    "url": "http://uk-koeln.de/fhir/StructureDefinition/Extension/nNGM/aufenthaltsart",
                                    "valueCodeableConcept": {
                                        "coding": [
                                            {
                                                "system": "http://terminology.hl7.org/CodeSystem/data-absent-reason",
                                                "code": "not-applicable",
                                                "display": "Not Applicable"
                                            }
                                        ]
                                    }
                                }
                            ],
                            "id": "ca339653-b86a-4ab2-b71f-f07bc2e19967",
                            "request": [
                                {
                                    "reference": "https://vonk.fhir.dev.healex.systems/administration/ServiceRequest/552f9267-6811-4983-8134-58ffe229448f"
                                }
                            ]
                        },
                        "request": {
                            "method": "PUT",
                            "url": "Specimen/ca339653-b86a-4ab2-b71f-f07bc2e19967"
                        }
                    },
                    {
                        "resource": {
                            "resourceType": "Observation",
                            "meta": {
                                "profile": [
                                    "http://uk-koeln.de/fhir/StructureDefinition/Observation/nNGM/histo-vorbefund"
                                ]
                            },
                            "subject": {
                                "reference": "https://vonk.fhir.dev.healex.systems/administration/Patient/620c7635-8810-48a7-843e-3b037aa860ae"
                            },
                            "status": "final",
                            "code": {
                                "coding": [
                                    {
                                        "system": "http://ncit.nci.nih.gov",
                                        "code": "C19165"
                                    }
                                ]
                            },
                            "category": [
                                {
                                    "coding": [
                                        {
                                            "system": "http://terminology.hl7.org/CodeSystem/observation-category",
                                            "code": "laboratory"
                                        }
                                    ]
                                }
                            ],
                            "valueCodeableConcept": {
                                "coding": [
                                    {
                                        "system": "http://ncit.nci.nih.gov",
                                        "code": "C3812",
                                        "display": "CUP"
                                    }
                                ]
                            },
                            "id": "e9d71fdc-9d0c-4875-8510-2090d8aa80f4",
                            "specimen": {
                                "reference": "https://vonk.fhir.dev.healex.systems/administration/Specimen/ca339653-b86a-4ab2-b71f-f07bc2e19967"
                            }
                        },
                        "request": {
                            "method": "PUT",
                            "url": "Observation/e9d71fdc-9d0c-4875-8510-2090d8aa80f4"
                        }
                    }
                ],
                "id": "f4eebe45-2cb8-403f-9945-25493dbf3076",
                "type": "transaction"
            }
        },
        {
            "resource": {
                "resourceType": "Bundle",
                "entry": [
                    {
                        "resource": {
                            "resourceType": "Composition",
                            "title": "nNGM - Antrag Pseudonymisiert",
                            "id": "0dd115c4-21f7-41e3-b363-3411010563eb",
                            "meta": {
                                "profile": [
                                    "http://uk-koeln.de/fhir/StructureDefinition/Composition/nNGM/Antrag-pseudonymisiert"
                                ]
                            },
                            "status": "final",
                            "identifier": {
                                "system": "http://uk-koeln.de/NamingSystem/nNGM/fallnummer",
                                "value": "2"
                            },
                            "type": {
                                "coding": [
                                    {
                                        "system": "http://uk-koeln.de/fhir/CodeSystem/nngm/compositions",
                                        "code": "antrag"
                                    }
                                ]
                            },
                            "category": [
                                {
                                    "coding": [
                                        {
                                            "system": "http://uk-koeln.de/fhir/CodeSystem/nngm/composition-category",
                                            "code": "psn"
                                        }
                                    ]
                                }
                            ],
                            "subject": {
                                "reference": "https://vonk.fhir.dev.healex.systems/administration/620c7635-8810-48a7-843e-3b037aa860ae",
                                "identifier": {
                                    "system": "http://uk-koeln.de/fhir/NamingSystem/nNGM/patient-identifier",
                                    "value": "1wy299WK"
                                }
                            },
                            "date": "2021-01-21T12:38:37+01:00",
                            "author": [
                                {
                                    "reference": "https://clinicalsite.org/person/38"
                                }
                            ],
                            "section": [
                                {
                                    "title": "basisangaben",
                                    "code": {
                                        "coding": [
                                            {
                                                "system": "http://uk-koeln.de/fhir/CodeSystem/nngm/sections",
                                                "code": "basisangaben"
                                            }
                                        ]
                                    },
                                    "entry": [
                                        {
                                            "reference": "https://vonk.fhir.dev.healex.systems/administration/Organization/00e6c8b9-34ef-4274-81b9-87972f6e877a"
                                        },
                                        {
                                            "reference": "https://vonk.fhir.dev.healex.systems/administration/ServiceRequest/8ddb6ddc-3d3e-4966-a2d9-f45a54fcefcc"
                                        },
                                        {
                                            "reference": "https://vonk.fhir.dev.healex.systems/administration/Coverage/eeeeb24a-ad67-46af-b59b-eff4d17dfd25"
                                        },
                                        {
                                            "reference": "https://vonk.fhir.dev.healex.systems/administration/Observation/d09166f6-84a5-4ebd-9b81-a20c5ae34e43"
                                        },
                                        {
                                            "reference": "https://vonk.fhir.dev.healex.systems/administration/Observation/0f6b25b0-80f8-4aa2-9da3-1b2938232e4c"
                                        },
                                        {
                                            "reference": "https://vonk.fhir.dev.healex.systems/administration/Observation/971d47ae-01c0-4c31-b1c1-27671910172c"
                                        },
                                        {
                                            "reference": "https://vonk.fhir.dev.healex.systems/administration/Observation/7a3b1a4d-16cc-4cfc-956a-76ba0e229419"
                                        },
                                        {
                                            "reference": "https://vonk.fhir.dev.healex.systems/administration/Practitioner/4754ccd5-169c-4cf0-bfb0-10caef49635d"
                                        },
                                        {
                                            "reference": "https://vonk.fhir.dev.healex.systems/administration/Consent/964c49e2-151a-48ab-aacb-490f0d5a4812"
                                        },
                                        {
                                            "reference": "https://vonk.fhir.dev.healex.systems/administration/Consent/e08c43eb-8cd1-4662-9e01-740b36d67dbb"
                                        },
                                        {
                                            "reference": "https://vonk.fhir.dev.healex.systems/administration/Consent/425e4989-f836-4ae3-a16f-6c2b7661d5c6"
                                        },
                                        {
                                            "reference": "https://vonk.fhir.dev.healex.systems/administration/Consent/fbefcf2f-f93d-468c-8ea9-37113a523f05"
                                        },
                                        {
                                            "reference": "https://vonk.fhir.dev.healex.systems/administration/Consent/066ccdd1-2959-4001-bde0-0bbbd1fd5685"
                                        },
                                        {
                                            "reference": "https://vonk.fhir.dev.healex.systems/administration/Consent/68fd0b3a-be73-4e87-94ed-aad4f5fe3d52"
                                        },
                                        {
                                            "reference": "https://vonk.fhir.dev.healex.systems/administration/Consent/17875541-65b1-4475-84ee-d638eebb1e7d"
                                        },
                                        {
                                            "reference": "https://vonk.fhir.dev.healex.systems/administration/Consent/abe0dfbc-87bb-49b8-b31c-f6e3a474ad4b"
                                        },
                                        {
                                            "reference": "https://vonk.fhir.dev.healex.systems/administration/Consent/3b6f6365-b21b-4a86-bfa9-89197ea9c315"
                                        },
                                        {
                                            "reference": "https://vonk.fhir.dev.healex.systems/administration/Consent/7042a5b0-4892-4588-8bf5-3a4e42de1c93"
                                        },
                                        {
                                            "reference": "https://vonk.fhir.dev.healex.systems/administration/Consent/88326e62-d761-48c4-84c8-2cab7f02f041"
                                        },
                                        {
                                            "reference": "https://vonk.fhir.dev.healex.systems/administration/Consent/79c43f55-d4a6-4c29-8b1d-345105e1da6c"
                                        },
                                        {
                                            "reference": "https://vonk.fhir.dev.healex.systems/administration/Consent/323420a2-ff87-400d-bdaf-b22b73d4c899"
                                        },
                                        {
                                            "reference": "https://vonk.fhir.dev.healex.systems/administration/Consent/725b5039-06b8-460a-863f-a690657eb5e6"
                                        },
                                        {
                                            "reference": "https://vonk.fhir.dev.healex.systems/administration/Consent/5f231813-fdf1-42f1-a800-fcbf6790e87c"
                                        }
                                    ]
                                },
                                {
                                    "title": "biopsy",
                                    "code": {
                                        "coding": [
                                            {
                                                "system": "http://uk-koeln.de/fhir/CodeSystem/nngm/sections",
                                                "code": "biopsie"
                                            }
                                        ]
                                    },
                                    "entry": [
                                        {
                                            "identifier": {
                                                "system": "http://uk-koeln.de/NamingSystem/nNGM/formularId",
                                                "value": "1"
                                            }
                                        }
                                    ]
                                }
                            ]
                        },
                        "request": {
                            "method": "PUT",
                            "url": "Composition/0dd115c4-21f7-41e3-b363-3411010563eb"
                        }
                    },
                    {
                        "resource": {
                            "resourceType": "Organization",
                            "meta": {
                                "profile": [
                                    "http://clinicalsite.org/fhir/StructureDefinition/organizationalunit"
                                ]
                            },
                            "identifier": [
                                {
                                    "system": "http://healex.systems/fhir/NamingSystem/nNGMnetzwerkzentrumid",
                                    "value": "3552"
                                }
                            ],
                            "name": "München LMU",
                            "contact": [
                                {
                                    "address": {
                                        "text": "München LMU\r\n\r\nKlinikum der Universität München\r\nCampus Großhadern\r\nStation F5/ Sekretariat\r\nMarchioninistr. 15\r\n81377 München\r\n+49 (0) 89 4400-75256\r\n+49 (0) 89 4400-78008"
                                    }
                                }
                            ],
                            "id": "00e6c8b9-34ef-4274-81b9-87972f6e877a"
                        },
                        "request": {
                            "method": "PUT",
                            "url": "Organization/00e6c8b9-34ef-4274-81b9-87972f6e877a"
                        }
                    },
                    {
                        "resource": {
                            "resourceType": "ServiceRequest",
                            "meta": {
                                "profile": [
                                    "http://uk-koeln.de/fhir/StructureDefinition/ServiceRequest/nNGM/tumorboard"
                                ]
                            },
                            "status": "active",
                            "intent": "proposal",
                            "code": {
                                "coding": [
                                    {
                                        "system": "http://ncit.nci.nih.gov",
                                        "code": "C19165"
                                    }
                                ]
                            },
                            "requester": {
                                "reference": "https://vonk.fhir.dev.healex.systems/administration/",
                                "_reference": {
                                    "extension": [
                                        {
                                            "url": "http://hl7.org/fhir/StructureDefinition/data-absent-reason",
                                            "valueCode": "not-asked"
                                        }
                                    ]
                                },
                                "extension": [
                                    {
                                        "url": "http://uk-koeln.de/fhir/StructureDefinition/Extension/nNGM/vorstellung-tmb",
                                        "valueBoolean": false
                                    },
                                    {
                                        "url": "http://uk-koeln.de/fhir/StructureDefinition/Extension/nNGM/persoenlicheTeilnahme",
                                        "valueBoolean": false
                                    }
                                ]
                            },
                            "subject": {
                                "reference": "https://vonk.fhir.dev.healex.systems/administration/Patient/620c7635-8810-48a7-843e-3b037aa860ae"
                            },
                            "id": "8ddb6ddc-3d3e-4966-a2d9-f45a54fcefcc",
                            "performer": [
                                {
                                    "reference": "https://vonk.fhir.dev.healex.systems/administration/Organization/00e6c8b9-34ef-4274-81b9-87972f6e877a"
                                }
                            ],
                            "authoredOn": "2021-01-01",
                            "encounter": {
                                "extension": [
                                    {
                                        "url": "http://uk-koeln.de/fhir/StructureDefinition/Extension/nNGM/aufenthaltsart",
                                        "valueCodeableConcept": {
                                            "coding": [
                                                {
                                                    "system": "http://hl7.org/fhir/v3/ActCode",
                                                    "code": "AMB",
                                                    "display": "ambulatory"
                                                }
                                            ]
                                        }
                                    }
                                ]
                            },
                            "reasonReference": [
                                {
                                    "reference": "https://vonk.fhir.dev.healex.systems/administration/Observation/971d47ae-01c0-4c31-b1c1-27671910172c"
                                },
                                {
                                    "reference": "https://vonk.fhir.dev.healex.systems/administration/Observation/0f6b25b0-80f8-4aa2-9da3-1b2938232e4c"
                                },
                                {
                                    "reference": "https://vonk.fhir.dev.healex.systems/administration/Observation/d09166f6-84a5-4ebd-9b81-a20c5ae34e43"
                                },
                                {
                                    "reference": "https://vonk.fhir.dev.healex.systems/administration/Observation/7a3b1a4d-16cc-4cfc-956a-76ba0e229419"
                                }
                            ]
                        },
                        "request": {
                            "method": "PUT",
                            "url": "ServiceRequest/8ddb6ddc-3d3e-4966-a2d9-f45a54fcefcc"
                        }
                    },
                    {
                        "resource": {
                            "resourceType": "Coverage",
                            "meta": {
                                "profile": [
                                    "http://uk-koeln.de/fhir/StructureDefinition/Coverage/nNGM/pseudonymisiert"
                                ]
                            },
                            "status": "active",
                            "beneficiary": {
                                "reference": "https://vonk.fhir.dev.healex.systems/administration/Patient/620c7635-8810-48a7-843e-3b037aa860ae"
                            },
                            "payor": [
                                {
                                    "reference": "https://vonk.fhir.dev.healex.systems/administration/Organization/00e6c8b9-34ef-4274-81b9-87972f6e877a"
                                },
                                {
                                    "extension": [
                                        {
                                            "url": "http://uk-koeln.de/fhir/StructureDefinition/Extension/nNGM/abrechnungsinformation",
                                            "valueCodeableConcept": {
                                                "coding": [
                                                    {
                                                        "system": "http://uk-koeln.de/fhir/CodeSystem/nngm/abrechnungsinformation",
                                                        "code": "Ü-Schein Sonstige"
                                                    }
                                                ]
                                            }
                                        }
                                    ]
                                },
                                {
                                    "display": "Berufsgenossenschaft Bauwirtschaft"
                                }
                            ],
                            "type": {
                                "coding": [
                                    {
                                        "system": "http://fhir.de/CodeSystem/versicherungsart-de-basis",
                                        "code": "GKV"
                                    }
                                ]
                            },
                            "extension": [
                                {
                                    "url": "http://uk-koeln.de/fhir/StructureDefinition/Extension/nNGM/kooperationsvereinbarung",
                                    "valueBoolean": false
                                }
                            ],
                            "id": "eeeeb24a-ad67-46af-b59b-eff4d17dfd25"
                        },
                        "request": {
                            "method": "PUT",
                            "url": "Coverage/eeeeb24a-ad67-46af-b59b-eff4d17dfd25"
                        }
                    },
                    {
                        "resource": {
                            "resourceType": "Observation",
                            "meta": {
                                "profile": [
                                    "http://uk-koeln.de/fhir/StructureDefinition/Observation/nNGM/koerpergroesse"
                                ]
                            },
                            "status": "final",
                            "category": [
                                {
                                    "coding": [
                                        {
                                            "system": "http://terminology.hl7.org/CodeSystem/observation-category",
                                            "code": "vital-signs"
                                        }
                                    ]
                                }
                            ],
                            "code": {
                                "coding": [
                                    {
                                        "system": "http://loinc.org",
                                        "code": "8302-2"
                                    }
                                ]
                            },
                            "subject": {
                                "reference": "https://vonk.fhir.dev.healex.systems/administration/Patient/620c7635-8810-48a7-843e-3b037aa860ae"
                            },
                            "effectiveDateTime": "2021-01-21T12:38:37+01:00",
                            "performer": [
                                {
                                    "reference": "https://vonk.fhir.dev.healex.systems/administration/Practitioner/4754ccd5-169c-4cf0-bfb0-10caef49635d"
                                },
                                {
                                    "reference": "https://vonk.fhir.dev.healex.systems/administration/Organization/00e6c8b9-34ef-4274-81b9-87972f6e877a"
                                }
                            ],
                            "valueQuantity": {
                                "system": "http://unitsofmeasure.org",
                                "unit": "centimeter",
                                "code": "cm",
                                "value": 999
                            },
                            "id": "d09166f6-84a5-4ebd-9b81-a20c5ae34e43"
                        },
                        "request": {
                            "method": "PUT",
                            "url": "Observation/d09166f6-84a5-4ebd-9b81-a20c5ae34e43"
                        }
                    },
                    {
                        "resource": {
                            "resourceType": "Observation",
                            "meta": {
                                "profile": [
                                    "http://uk-koeln.de/fhir/StructureDefinition/Observation/nNGM/koerpergewicht"
                                ]
                            },
                            "status": "final",
                            "category": [
                                {
                                    "coding": [
                                        {
                                            "system": "http://terminology.hl7.org/CodeSystem/observation-category",
                                            "code": "vital-signs"
                                        }
                                    ]
                                }
                            ],
                            "code": {
                                "coding": [
                                    {
                                        "system": "http://loinc.org",
                                        "code": "29463-7"
                                    }
                                ]
                            },
                            "subject": {
                                "reference": "https://vonk.fhir.dev.healex.systems/administration/Patient/620c7635-8810-48a7-843e-3b037aa860ae"
                            },
                            "effectiveDateTime": "2021-01-21T12:38:37+01:00",
                            "performer": [
                                {
                                    "reference": "https://vonk.fhir.dev.healex.systems/administration/Practitioner/4754ccd5-169c-4cf0-bfb0-10caef49635d"
                                },
                                {
                                    "reference": "https://vonk.fhir.dev.healex.systems/administration/Organization/00e6c8b9-34ef-4274-81b9-87972f6e877a"
                                }
                            ],
                            "valueQuantity": {
                                "system": "http://unitsofmeasure.org",
                                "unit": "kilogram",
                                "code": "kg",
                                "value": 999.0
                            },
                            "id": "0f6b25b0-80f8-4aa2-9da3-1b2938232e4c"
                        },
                        "request": {
                            "method": "PUT",
                            "url": "Observation/0f6b25b0-80f8-4aa2-9da3-1b2938232e4c"
                        }
                    },
                    {
                        "resource": {
                            "resourceType": "Observation",
                            "meta": {
                                "profile": [
                                    "http://uk-koeln.de/fhir/StructureDefinition/Observation/nNGM/ecog"
                                ]
                            },
                            "status": "final",
                            "category": [
                                {
                                    "coding": [
                                        {
                                            "system": "http://terminology.hl7.org/CodeSystem/observation-category",
                                            "code": "survey"
                                        }
                                    ]
                                }
                            ],
                            "code": {
                                "coding": [
                                    {
                                        "system": "http://loinc.org",
                                        "code": "89247-1"
                                    }
                                ]
                            },
                            "subject": {
                                "reference": "https://vonk.fhir.dev.healex.systems/administration/Patient/620c7635-8810-48a7-843e-3b037aa860ae"
                            },
                            "performer": [
                                {
                                    "reference": "https://vonk.fhir.dev.healex.systems/administration/Practitioner/4754ccd5-169c-4cf0-bfb0-10caef49635d"
                                },
                                {
                                    "reference": "https://vonk.fhir.dev.healex.systems/administration/Organization/00e6c8b9-34ef-4274-81b9-87972f6e877a"
                                }
                            ],
                            "valueCodeableConcept": {
                                "coding": [
                                    {
                                        "system": "urn:oid:1.2.276.0.76.3.1.131.1.5.153",
                                        "code": "2",
                                        "display": "2 - gehfähig, Selbstversorgung möglich, aber nicht arbeitsfähig, kann mehr als 50 % der Wachzeit aufstehen"
                                    }
                                ]
                            },
                            "id": "971d47ae-01c0-4c31-b1c1-27671910172c"
                        },
                        "request": {
                            "method": "PUT",
                            "url": "Observation/971d47ae-01c0-4c31-b1c1-27671910172c"
                        }
                    },
                    {
                        "resource": {
                            "resourceType": "Observation",
                            "meta": {
                                "profile": [
                                    "http://uk-koeln.de/fhir/StructureDefinition/Observation/nNGM/raucherstatus"
                                ]
                            },
                            "status": "final",
                            "category": [
                                {
                                    "coding": [
                                        {
                                            "system": "http://hl7.org/fhir/observation-category",
                                            "code": "social-history"
                                        }
                                    ]
                                }
                            ],
                            "code": {
                                "coding": [
                                    {
                                        "system": "http://loinc.org",
                                        "code": "72166-2"
                                    }
                                ]
                            },
                            "subject": {
                                "reference": "https://vonk.fhir.dev.healex.systems/administration/Patient/620c7635-8810-48a7-843e-3b037aa860ae"
                            },
                            "performer": [
                                {
                                    "reference": "https://vonk.fhir.dev.healex.systems/administration/Practitioner/4754ccd5-169c-4cf0-bfb0-10caef49635d"
                                },
                                {
                                    "reference": "https://vonk.fhir.dev.healex.systems/administration/Organization/00e6c8b9-34ef-4274-81b9-87972f6e877a"
                                }
                            ],
                            "valueCodeableConcept": {
                                "coding": [
                                    {
                                        "system": "http://loinc.org",
                                        "code": "LA15920-4",
                                        "display": "Former smoker"
                                    }
                                ]
                            },
                            "component": [
                                {
                                    "code": {
                                        "text": "Nichtraucher Seit",
                                        "coding": [
                                            {
                                                "system": "http://ncit.nci.nih.gov",
                                                "code": "C127065"
                                            }
                                        ]
                                    },
                                    "valueDateTime": "1901-10-01"
                                },
                                {
                                    "code": {
                                        "text": "Packungen Pro Jahr",
                                        "coding": [
                                            {
                                                "system": "http://ncit.nci.nih.gov",
                                                "code": "C73993"
                                            }
                                        ]
                                    },
                                    "valueQuantity": {
                                        "unit": "pack years",
                                        "system": "http://unitsofmeasure.org",
                                        "code": "1{pack years}",
                                        "value": 999
                                    }
                                }
                            ],
                            "id": "7a3b1a4d-16cc-4cfc-956a-76ba0e229419"
                        },
                        "request": {
                            "method": "PUT",
                            "url": "Observation/7a3b1a4d-16cc-4cfc-956a-76ba0e229419"
                        }
                    },
                    {
                        "resource": {
                            "resourceType": "Practitioner",
                            "meta": {
                                "profile": [
                                    "http://uk-koeln.de/fhir/StructureDefinition/Practitioner/nNGM"
                                ]
                            },
                            "name": [
                                {
                                    "extension": [
                                        {
                                            "url": "http://hl7.org/fhir/StructureDefinition/data-absent-reason",
                                            "valueCode": "not-asked"
                                        }
                                    ]
                                }
                            ],
                            "identifier": [
                                {
                                    "system": "http://uk-koeln.de/NamingSystem/nNGM/practitionerId",
                                    "value": "001"
                                }
                            ],
                            "address": [
                                {
                                    "text": "ReferenzenKontakt"
                                }
                            ],
                            "id": "4754ccd5-169c-4cf0-bfb0-10caef49635d"
                        },
                        "request": {
                            "method": "PUT",
                            "url": "Practitioner/4754ccd5-169c-4cf0-bfb0-10caef49635d"
                        }
                    },
                    {
                        "resource": {
                            "resourceType": "Consent",
                            "meta": {
                                "profile": [
                                    "http://uk-koeln.de/fhir/StructureDefinition/Consent/nNGM"
                                ]
                            },
                            "status": "active",
                            "scope": {
                                "coding": [
                                    {
                                        "system": "http://terminology.hl7.org/CodeSystem/consentscope",
                                        "code": "patient-privacy"
                                    }
                                ]
                            },
                            "category": [
                                {
                                    "coding": [
                                        {
                                            "system": "http://loinc.org",
                                            "code": "59284-0"
                                        }
                                    ]
                                }
                            ],
                            "patient": {
                                "reference": "https://vonk.fhir.dev.healex.systems/administration/Patient/620c7635-8810-48a7-843e-3b037aa860ae"
                            },
                            "performer": [
                                {
                                    "reference": "https://vonk.fhir.dev.healex.systems/administration/Organization/00e6c8b9-34ef-4274-81b9-87972f6e877a"
                                }
                            ],
                            "provision": {
                                "type": "permit"
                            },
                            "policyRule": {
                                "coding": [
                                    {
                                        "system": "http://uk-koeln.de/fhir/CodeSystem/nngm/nngm-consent-policy",
                                        "code": "TE"
                                    }
                                ]
                            },
                            "dateTime": "2020-07-06",
                            "id": "964c49e2-151a-48ab-aacb-490f0d5a4812"
                        },
                        "request": {
                            "method": "PUT",
                            "url": "Consent/964c49e2-151a-48ab-aacb-490f0d5a4812"
                        }
                    },
                    {
                        "resource": {
                            "resourceType": "Consent",
                            "meta": {
                                "profile": [
                                    "http://uk-koeln.de/fhir/StructureDefinition/Consent/nNGM"
                                ]
                            },
                            "status": "active",
                            "scope": {
                                "coding": [
                                    {
                                        "system": "http://terminology.hl7.org/CodeSystem/consentscope",
                                        "code": "patient-privacy"
                                    }
                                ]
                            },
                            "category": [
                                {
                                    "coding": [
                                        {
                                            "system": "http://loinc.org",
                                            "code": "59284-0"
                                        }
                                    ]
                                }
                            ],
                            "patient": {
                                "reference": "https://vonk.fhir.dev.healex.systems/administration/Patient/620c7635-8810-48a7-843e-3b037aa860ae"
                            },
                            "performer": [
                                {
                                    "reference": "https://vonk.fhir.dev.healex.systems/administration/Organization/00e6c8b9-34ef-4274-81b9-87972f6e877a"
                                }
                            ],
                            "provision": {
                                "type": "permit"
                            },
                            "policyRule": {
                                "coding": [
                                    {
                                        "system": "http://uk-koeln.de/fhir/CodeSystem/nngm/nngm-consent-policy",
                                        "code": "DS"
                                    }
                                ]
                            },
                            "dateTime": "2020-06-07",
                            "id": "e08c43eb-8cd1-4662-9e01-740b36d67dbb"
                        },
                        "request": {
                            "method": "PUT",
                            "url": "Consent/e08c43eb-8cd1-4662-9e01-740b36d67dbb"
                        }
                    },
                    {
                        "resource": {
                            "resourceType": "Consent",
                            "meta": {
                                "profile": [
                                    "http://uk-koeln.de/fhir/StructureDefinition/Consent/nNGM"
                                ]
                            },
                            "status": "active",
                            "scope": {
                                "coding": [
                                    {
                                        "system": "http://terminology.hl7.org/CodeSystem/consentscope",
                                        "code": "patient-privacy"
                                    }
                                ]
                            },
                            "category": [
                                {
                                    "coding": [
                                        {
                                            "system": "http://loinc.org",
                                            "code": "59284-0"
                                        }
                                    ]
                                }
                            ],
                            "patient": {
                                "reference": "https://vonk.fhir.dev.healex.systems/administration/Patient/620c7635-8810-48a7-843e-3b037aa860ae"
                            },
                            "performer": [
                                {
                                    "reference": "https://vonk.fhir.dev.healex.systems/administration/Organization/00e6c8b9-34ef-4274-81b9-87972f6e877a"
                                }
                            ],
                            "provision": {
                                "type": "permit"
                            },
                            "policyRule": {
                                "coding": [
                                    {
                                        "system": "http://uk-koeln.de/fhir/CodeSystem/nngm/nngm-consent-policy",
                                        "code": "1a"
                                    }
                                ]
                            },
                            "dateTime": "1901-05-05",
                            "id": "425e4989-f836-4ae3-a16f-6c2b7661d5c6"
                        },
                        "request": {
                            "method": "PUT",
                            "url": "Consent/425e4989-f836-4ae3-a16f-6c2b7661d5c6"
                        }
                    },
                    {
                        "resource": {
                            "resourceType": "Consent",
                            "meta": {
                                "profile": [
                                    "http://uk-koeln.de/fhir/StructureDefinition/Consent/nNGM"
                                ]
                            },
                            "status": "active",
                            "scope": {
                                "coding": [
                                    {
                                        "system": "http://terminology.hl7.org/CodeSystem/consentscope",
                                        "code": "patient-privacy"
                                    }
                                ]
                            },
                            "category": [
                                {
                                    "coding": [
                                        {
                                            "system": "http://loinc.org",
                                            "code": "59284-0"
                                        }
                                    ]
                                }
                            ],
                            "patient": {
                                "reference": "https://vonk.fhir.dev.healex.systems/administration/Patient/620c7635-8810-48a7-843e-3b037aa860ae"
                            },
                            "performer": [
                                {
                                    "reference": "https://vonk.fhir.dev.healex.systems/administration/Organization/00e6c8b9-34ef-4274-81b9-87972f6e877a"
                                }
                            ],
                            "provision": {
                                "type": "permit"
                            },
                            "policyRule": {
                                "coding": [
                                    {
                                        "system": "http://uk-koeln.de/fhir/CodeSystem/nngm/nngm-consent-policy",
                                        "code": "1b"
                                    }
                                ]
                            },
                            "dateTime": "1902-06-06",
                            "id": "fbefcf2f-f93d-468c-8ea9-37113a523f05"
                        },
                        "request": {
                            "method": "PUT",
                            "url": "Consent/fbefcf2f-f93d-468c-8ea9-37113a523f05"
                        }
                    },
                    {
                        "resource": {
                            "resourceType": "Consent",
                            "meta": {
                                "profile": [
                                    "http://uk-koeln.de/fhir/StructureDefinition/Consent/nNGM"
                                ]
                            },
                            "status": "active",
                            "scope": {
                                "coding": [
                                    {
                                        "system": "http://terminology.hl7.org/CodeSystem/consentscope",
                                        "code": "patient-privacy"
                                    }
                                ]
                            },
                            "category": [
                                {
                                    "coding": [
                                        {
                                            "system": "http://loinc.org",
                                            "code": "59284-0"
                                        }
                                    ]
                                }
                            ],
                            "patient": {
                                "reference": "https://vonk.fhir.dev.healex.systems/administration/Patient/620c7635-8810-48a7-843e-3b037aa860ae"
                            },
                            "performer": [
                                {
                                    "reference": "https://vonk.fhir.dev.healex.systems/administration/Organization/00e6c8b9-34ef-4274-81b9-87972f6e877a"
                                }
                            ],
                            "provision": {
                                "type": "permit"
                            },
                            "policyRule": {
                                "coding": [
                                    {
                                        "system": "http://uk-koeln.de/fhir/CodeSystem/nngm/nngm-consent-policy",
                                        "code": "2"
                                    }
                                ]
                            },
                            "dateTime": "1906-07-07",
                            "id": "066ccdd1-2959-4001-bde0-0bbbd1fd5685"
                        },
                        "request": {
                            "method": "PUT",
                            "url": "Consent/066ccdd1-2959-4001-bde0-0bbbd1fd5685"
                        }
                    },
                    {
                        "resource": {
                            "resourceType": "Consent",
                            "meta": {
                                "profile": [
                                    "http://uk-koeln.de/fhir/StructureDefinition/Consent/nNGM"
                                ]
                            },
                            "status": "active",
                            "scope": {
                                "coding": [
                                    {
                                        "system": "http://terminology.hl7.org/CodeSystem/consentscope",
                                        "code": "patient-privacy"
                                    }
                                ]
                            },
                            "category": [
                                {
                                    "coding": [
                                        {
                                            "system": "http://loinc.org",
                                            "code": "59284-0"
                                        }
                                    ]
                                }
                            ],
                            "patient": {
                                "reference": "https://vonk.fhir.dev.healex.systems/administration/Patient/620c7635-8810-48a7-843e-3b037aa860ae"
                            },
                            "provision": {
                                "type": "deny"
                            },
                            "policyRule": {
                                "coding": [
                                    {
                                        "system": "http://uk-koeln.de/fhir/CodeSystem/nngm/nngm-consent-policy",
                                        "code": "MD"
                                    }
                                ]
                            },
                            "id": "68fd0b3a-be73-4e87-94ed-aad4f5fe3d52",
                            "performer": [
                                {
                                    "reference": "https://vonk.fhir.dev.healex.systems/administration/Organization/00e6c8b9-34ef-4274-81b9-87972f6e877a"
                                }
                            ]
                        },
                        "request": {
                            "method": "PUT",
                            "url": "Consent/68fd0b3a-be73-4e87-94ed-aad4f5fe3d52"
                        }
                    },
                    {
                        "resource": {
                            "resourceType": "Consent",
                            "meta": {
                                "profile": [
                                    "http://uk-koeln.de/fhir/StructureDefinition/Consent/nNGM"
                                ]
                            },
                            "status": "active",
                            "scope": {
                                "coding": [
                                    {
                                        "system": "http://terminology.hl7.org/CodeSystem/consentscope",
                                        "code": "patient-privacy"
                                    }
                                ]
                            },
                            "category": [
                                {
                                    "coding": [
                                        {
                                            "system": "http://loinc.org",
                                            "code": "59284-0"
                                        }
                                    ]
                                }
                            ],
                            "patient": {
                                "reference": "https://vonk.fhir.dev.healex.systems/administration/Patient/620c7635-8810-48a7-843e-3b037aa860ae"
                            },
                            "provision": {
                                "type": "deny"
                            },
                            "policyRule": {
                                "coding": [
                                    {
                                        "system": "http://uk-koeln.de/fhir/CodeSystem/nngm/nngm-consent-policy",
                                        "code": "ST"
                                    }
                                ]
                            },
                            "id": "17875541-65b1-4475-84ee-d638eebb1e7d",
                            "performer": [
                                {
                                    "reference": "https://vonk.fhir.dev.healex.systems/administration/Organization/00e6c8b9-34ef-4274-81b9-87972f6e877a"
                                }
                            ]
                        },
                        "request": {
                            "method": "PUT",
                            "url": "Consent/17875541-65b1-4475-84ee-d638eebb1e7d"
                        }
                    },
                    {
                        "resource": {
                            "resourceType": "Consent",
                            "meta": {
                                "profile": [
                                    "http://uk-koeln.de/fhir/StructureDefinition/Consent/nNGM"
                                ]
                            },
                            "status": "active",
                            "scope": {
                                "coding": [
                                    {
                                        "system": "http://terminology.hl7.org/CodeSystem/consentscope",
                                        "code": "patient-privacy"
                                    }
                                ]
                            },
                            "category": [
                                {
                                    "coding": [
                                        {
                                            "system": "http://loinc.org",
                                            "code": "59284-0"
                                        }
                                    ]
                                }
                            ],
                            "patient": {
                                "reference": "https://vonk.fhir.dev.healex.systems/administration/Patient/620c7635-8810-48a7-843e-3b037aa860ae"
                            },
                            "provision": {
                                "type": "deny"
                            },
                            "policyRule": {
                                "coding": [
                                    {
                                        "system": "http://uk-koeln.de/fhir/CodeSystem/nngm/nngm-consent-policy",
                                        "code": "WPI"
                                    }
                                ]
                            },
                            "id": "abe0dfbc-87bb-49b8-b31c-f6e3a474ad4b",
                            "performer": [
                                {
                                    "reference": "https://vonk.fhir.dev.healex.systems/administration/Organization/00e6c8b9-34ef-4274-81b9-87972f6e877a"
                                }
                            ]
                        },
                        "request": {
                            "method": "PUT",
                            "url": "Consent/abe0dfbc-87bb-49b8-b31c-f6e3a474ad4b"
                        }
                    },
                    {
                        "resource": {
                            "resourceType": "Consent",
                            "meta": {
                                "profile": [
                                    "http://uk-koeln.de/fhir/StructureDefinition/Consent/nNGM"
                                ]
                            },
                            "status": "active",
                            "scope": {
                                "coding": [
                                    {
                                        "system": "http://terminology.hl7.org/CodeSystem/consentscope",
                                        "code": "patient-privacy"
                                    }
                                ]
                            },
                            "category": [
                                {
                                    "coding": [
                                        {
                                            "system": "http://loinc.org",
                                            "code": "59284-0"
                                        }
                                    ]
                                }
                            ],
                            "patient": {
                                "reference": "https://vonk.fhir.dev.healex.systems/administration/Patient/620c7635-8810-48a7-843e-3b037aa860ae"
                            },
                            "provision": {
                                "type": "deny"
                            },
                            "policyRule": {
                                "coding": [
                                    {
                                        "system": "http://uk-koeln.de/fhir/CodeSystem/nngm/nngm-consent-policy",
                                        "code": "WP"
                                    }
                                ]
                            },
                            "id": "3b6f6365-b21b-4a86-bfa9-89197ea9c315",
                            "performer": [
                                {
                                    "reference": "https://vonk.fhir.dev.healex.systems/administration/Organization/00e6c8b9-34ef-4274-81b9-87972f6e877a"
                                }
                            ]
                        },
                        "request": {
                            "method": "PUT",
                            "url": "Consent/3b6f6365-b21b-4a86-bfa9-89197ea9c315"
                        }
                    },
                    {
                        "resource": {
                            "resourceType": "Consent",
                            "meta": {
                                "profile": [
                                    "http://uk-koeln.de/fhir/StructureDefinition/Consent/nNGM"
                                ]
                            },
                            "status": "active",
                            "scope": {
                                "coding": [
                                    {
                                        "system": "http://terminology.hl7.org/CodeSystem/consentscope",
                                        "code": "patient-privacy"
                                    }
                                ]
                            },
                            "category": [
                                {
                                    "coding": [
                                        {
                                            "system": "http://loinc.org",
                                            "code": "59284-0"
                                        }
                                    ]
                                }
                            ],
                            "patient": {
                                "reference": "https://vonk.fhir.dev.healex.systems/administration/Patient/620c7635-8810-48a7-843e-3b037aa860ae"
                            },
                            "provision": {
                                "type": "deny"
                            },
                            "policyRule": {
                                "coding": [
                                    {
                                        "system": "http://uk-koeln.de/fhir/CodeSystem/nngm/nngm-consent-policy",
                                        "code": "WD"
                                    }
                                ]
                            },
                            "id": "7042a5b0-4892-4588-8bf5-3a4e42de1c93",
                            "performer": [
                                {
                                    "reference": "https://vonk.fhir.dev.healex.systems/administration/Organization/00e6c8b9-34ef-4274-81b9-87972f6e877a"
                                }
                            ]
                        },
                        "request": {
                            "method": "PUT",
                            "url": "Consent/7042a5b0-4892-4588-8bf5-3a4e42de1c93"
                        }
                    },
                    {
                        "resource": {
                            "resourceType": "Consent",
                            "meta": {
                                "profile": [
                                    "http://uk-koeln.de/fhir/StructureDefinition/Consent/nNGM"
                                ]
                            },
                            "status": "active",
                            "scope": {
                                "coding": [
                                    {
                                        "system": "http://terminology.hl7.org/CodeSystem/consentscope",
                                        "code": "patient-privacy"
                                    }
                                ]
                            },
                            "category": [
                                {
                                    "coding": [
                                        {
                                            "system": "http://loinc.org",
                                            "code": "59284-0"
                                        }
                                    ]
                                }
                            ],
                            "patient": {
                                "reference": "https://vonk.fhir.dev.healex.systems/administration/Patient/620c7635-8810-48a7-843e-3b037aa860ae"
                            },
                            "provision": {
                                "type": "deny"
                            },
                            "policyRule": {
                                "coding": [
                                    {
                                        "system": "http://uk-koeln.de/fhir/CodeSystem/nngm/nngm-consent-policy",
                                        "code": "WR"
                                    }
                                ]
                            },
                            "id": "88326e62-d761-48c4-84c8-2cab7f02f041",
                            "performer": [
                                {
                                    "reference": "https://vonk.fhir.dev.healex.systems/administration/Organization/00e6c8b9-34ef-4274-81b9-87972f6e877a"
                                }
                            ]
                        },
                        "request": {
                            "method": "PUT",
                            "url": "Consent/88326e62-d761-48c4-84c8-2cab7f02f041"
                        }
                    },
                    {
                        "resource": {
                            "resourceType": "Consent",
                            "meta": {
                                "profile": [
                                    "http://uk-koeln.de/fhir/StructureDefinition/Consent/nNGM"
                                ]
                            },
                            "status": "active",
                            "scope": {
                                "coding": [
                                    {
                                        "system": "http://terminology.hl7.org/CodeSystem/consentscope",
                                        "code": "patient-privacy"
                                    }
                                ]
                            },
                            "category": [
                                {
                                    "coding": [
                                        {
                                            "system": "http://loinc.org",
                                            "code": "59284-0"
                                        }
                                    ]
                                }
                            ],
                            "patient": {
                                "reference": "https://vonk.fhir.dev.healex.systems/administration/Patient/620c7635-8810-48a7-843e-3b037aa860ae"
                            },
                            "provision": {
                                "type": "permit"
                            },
                            "policyRule": {
                                "coding": [
                                    {
                                        "system": "http://uk-koeln.de/fhir/CodeSystem/nngm/nngm-consent-policy",
                                        "code": "WPK"
                                    }
                                ]
                            },
                            "dateTime": "2020-12-12",
                            "id": "79c43f55-d4a6-4c29-8b1d-345105e1da6c",
                            "performer": [
                                {
                                    "reference": "https://vonk.fhir.dev.healex.systems/administration/Organization/00e6c8b9-34ef-4274-81b9-87972f6e877a"
                                }
                            ]
                        },
                        "request": {
                            "method": "PUT",
                            "url": "Consent/79c43f55-d4a6-4c29-8b1d-345105e1da6c"
                        }
                    },
                    {
                        "resource": {
                            "resourceType": "Consent",
                            "meta": {
                                "profile": [
                                    "http://uk-koeln.de/fhir/StructureDefinition/Consent/nNGM"
                                ]
                            },
                            "status": "active",
                            "scope": {
                                "coding": [
                                    {
                                        "system": "http://terminology.hl7.org/CodeSystem/consentscope",
                                        "code": "patient-privacy"
                                    }
                                ]
                            },
                            "category": [
                                {
                                    "coding": [
                                        {
                                            "system": "http://loinc.org",
                                            "code": "59284-0"
                                        }
                                    ]
                                }
                            ],
                            "patient": {
                                "reference": "https://vonk.fhir.dev.healex.systems/administration/Patient/620c7635-8810-48a7-843e-3b037aa860ae"
                            },
                            "provision": {
                                "type": "deny"
                            },
                            "policyRule": {
                                "coding": [
                                    {
                                        "system": "http://uk-koeln.de/fhir/CodeSystem/nngm/nngm-consent-policy",
                                        "code": "WK"
                                    }
                                ]
                            },
                            "id": "323420a2-ff87-400d-bdaf-b22b73d4c899",
                            "performer": [
                                {
                                    "reference": "https://vonk.fhir.dev.healex.systems/administration/Organization/00e6c8b9-34ef-4274-81b9-87972f6e877a"
                                }
                            ]
                        },
                        "request": {
                            "method": "PUT",
                            "url": "Consent/323420a2-ff87-400d-bdaf-b22b73d4c899"
                        }
                    },
                    {
                        "resource": {
                            "resourceType": "Consent",
                            "meta": {
                                "profile": [
                                    "http://uk-koeln.de/fhir/StructureDefinition/Consent/nNGM"
                                ]
                            },
                            "status": "active",
                            "scope": {
                                "coding": [
                                    {
                                        "system": "http://terminology.hl7.org/CodeSystem/consentscope",
                                        "code": "patient-privacy"
                                    }
                                ]
                            },
                            "category": [
                                {
                                    "coding": [
                                        {
                                            "system": "http://loinc.org",
                                            "code": "59284-0"
                                        }
                                    ]
                                }
                            ],
                            "patient": {
                                "reference": "https://vonk.fhir.dev.healex.systems/administration/Patient/620c7635-8810-48a7-843e-3b037aa860ae"
                            },
                            "provision": {
                                "type": "deny"
                            },
                            "policyRule": {
                                "coding": [
                                    {
                                        "system": "http://uk-koeln.de/fhir/CodeSystem/nngm/nngm-consent-policy",
                                        "code": "KW"
                                    }
                                ]
                            },
                            "id": "725b5039-06b8-460a-863f-a690657eb5e6",
                            "performer": [
                                {
                                    "reference": "https://vonk.fhir.dev.healex.systems/administration/Organization/00e6c8b9-34ef-4274-81b9-87972f6e877a"
                                }
                            ]
                        },
                        "request": {
                            "method": "PUT",
                            "url": "Consent/725b5039-06b8-460a-863f-a690657eb5e6"
                        }
                    },
                    {
                        "resource": {
                            "resourceType": "Consent",
                            "meta": {
                                "profile": [
                                    "http://uk-koeln.de/fhir/StructureDefinition/Consent/nNGM"
                                ]
                            },
                            "status": "active",
                            "scope": {
                                "coding": [
                                    {
                                        "system": "http://terminology.hl7.org/CodeSystem/consentscope",
                                        "code": "patient-privacy"
                                    }
                                ]
                            },
                            "category": [
                                {
                                    "coding": [
                                        {
                                            "system": "http://loinc.org",
                                            "code": "59284-0"
                                        }
                                    ]
                                }
                            ],
                            "patient": {
                                "reference": "https://vonk.fhir.dev.healex.systems/administration/Patient/620c7635-8810-48a7-843e-3b037aa860ae"
                            },
                            "provision": {
                                "type": "deny"
                            },
                            "policyRule": {
                                "coding": [
                                    {
                                        "system": "http://uk-koeln.de/fhir/CodeSystem/nngm/nngm-consent-policy",
                                        "code": "KE"
                                    }
                                ]
                            },
                            "id": "5f231813-fdf1-42f1-a800-fcbf6790e87c",
                            "performer": [
                                {
                                    "reference": "https://vonk.fhir.dev.healex.systems/administration/Organization/00e6c8b9-34ef-4274-81b9-87972f6e877a"
                                }
                            ]
                        },
                        "request": {
                            "method": "PUT",
                            "url": "Consent/5f231813-fdf1-42f1-a800-fcbf6790e87c"
                        }
                    }
                ],
                "id": "cadbc17f-f73b-47e7-ae8f-85847c8aada3",
                "type": "transaction"
            }
        }
    ]
}