{
    "resourceType": "Bundle",
<<<<<<< master
    "entry": [
        {
            "resource": {
                "resourceType": "Composition",
                "title": "Stammdaten",
                "id": "70401ffe-5c5b-4d0e-982d-51eaaefbcf63",
                "meta": {
                    "profile": [
                        "http://uk-koeln.de/fhir/StructureDefinition/Composition/nNGM/Stammdaten-pseudonymisiert"
                    ]
                },
                "status": "final",
                "type": {
                    "coding": [
                        {
                            "system": "http://uk-koeln.de/fhir/CodeSystem/nngm/compositions",
                            "code": "stammdaten"
                        }
                    ]
                },
                "category": [
                    {
                        "coding": [
                            {
                                "system": "http://uk-koeln.de/fhir/CodeSystem/nngm/composition-category",
                                "code": "idat"
                            }
                        ]
                    }
                ],
                "subject": {
                    "reference": "http://localhost:4080/administration/620c7635-8810-48a7-843e-3b037aa860ae",
                    "identifier": {
                        "system": "http://uk-koeln.de/fhir/NamingSystem/nNGM/patient-identifier",
                        "value": ""
                    }
                },
                "date": "2021-01-07T10:54:59+01:00",
                "section": [
                    {
                        "code": {
                            "coding": [
                                {
                                    "system": "http://uk-koeln.de/fhir/CodeSystem/nngm/sections",
                                    "code": "stammdaten"
                                }
                            ]
                        },
                        "entry": [
                            {
                                "reference": "http://localhost:4080/administration/Patient/620c7635-8810-48a7-843e-3b037aa860ae"
                            },
                            {
                                "reference": "http://localhost:4080/administration/Coverage/bdd7d7de-4326-45f1-9168-8c1adbf5f624"
                            },
                            {
                                "reference": "http://localhost:4080/administration/Patient/0ea3bde8-0fb5-472b-8cc0-437e96ca548c"
                            },
                            {
                                "reference": "http://localhost:4080/administration/Consent/82964a95-abed-4a54-ac54-4948a0e63ae0"
                            },
                            {
                                "reference": "http://localhost:4080/administration/Consent/091c943d-ddfc-48a7-941f-fd09f7a295a1"
                            }
                        ]
                    }
                ]
            }
        },
        {
            "resource": {
                "resourceType": "Patient",
                "meta": {
                    "profile": [
                        "http://uk-koeln.de/fhir/StructureDefinition/Patient/nNGM"
                    ]
                },
                "gender": "male",
                "address": [
                    {
                        "country": "AUT"
                    }
                ],
                "id": "620c7635-8810-48a7-843e-3b037aa860ae"
            },
            "request": {
                "method": "PUT",
                "url": "Patient/620c7635-8810-48a7-843e-3b037aa860ae"
            }
        },
        {
            "resource": {
                "resourceType": "Coverage",
                "meta": {
                    "profile": [
                        "http://uk-koeln.de/fhir/StructureDefinition/Coverage/nNGM"
                    ]
                },
                "status": "active",
                "beneficiary": {
                    "reference": "http://localhost:4080/administration/Patient/620c7635-8810-48a7-843e-3b037aa860ae"
                },
                "subscriber": {
                    "reference": "http://localhost:4080/administration/Patient/620c7635-8810-48a7-843e-3b037aa860ae"
                },
                "type": {
                    "coding": [
                        {
                            "system": "http://fhir.de/ValueSet/versicherungsart-de-basis",
                            "code": "GKV"
                        }
                    ]
                },
                "payor": [
                    {
                        "display": "AOK Bremen/Bremerhaven"
                    }
                ],
                "extension": [
                    {
                        "url": "http://uk-koeln.de/fhir/StructureDefinition/Extension/nNGM/kooperationsvereinbarung",
                        "valueBoolean": false
                    }
                ],
                "id": "bdd7d7de-4326-45f1-9168-8c1adbf5f624"
            },
            "request": {
                "method": "PUT",
                "url": "Coverage/bdd7d7de-4326-45f1-9168-8c1adbf5f624"
            }
        },
        {
            "resource": {
                "resourceType": "EpisodeOfCare",
                "meta": {
                    "profile": [
                        "http://uk-koeln.de/fhir/StructureDefinition/EpisodeOfCare/nNGM"
                    ]
                },
                "patient": {
                    "reference": "http://localhost:4080/administration/Patient/620c7635-8810-48a7-843e-3b037aa860ae"
                },
                "status": "active",
                "_status": {
                    "extension": [
                        {
                            "url": "http://uk-koeln.de/fhir/StructureDefinition/Extension/nNGM/FollowUpStatus",
                            "valueCodeableConcept": {
                                "coding": [
                                    {
                                        "system": "http://uk-koeln.de/fhir/ValueSet/FollowUpStatus",
                                        "code": "lebt"
                                    }
                                ]
                            }
                        }
                    ]
                },
                "identifier": [
                    {
                        "extension": [
                            {
                                "url": "http://hl7.org/fhir/StructureDefinition/data-absent-reason",
                                "valueCode": "not-asked"
                            }
                        ]
                    }
                ],
                "id": "0ea3bde8-0fb5-472b-8cc0-437e96ca548c"
            },
            "request": {
                "method": "PUT",
                "url": "EpisodeOfCare/0ea3bde8-0fb5-472b-8cc0-437e96ca548c"
            }
        },
        {
            "resource": {
                "resourceType": "Consent",
                "meta": {
                    "profile": [
                        "http://uk-koeln.de/fhir/StructureDefinition/Consent/nNGM"
                    ]
                },
                "status": "active",
                "scope": {
                    "coding": [
                        {
                            "system": "http://terminology.hl7.org/CodeSystem/consentscope",
                            "code": "patient-privacy"
                        }
                    ]
                },
                "category": [
                    {
                        "coding": [
                            {
                                "system": "http://loinc.org",
                                "code": "59284-0"
                            }
                        ]
                    }
                ],
                "patient": {
                    "reference": "http://localhost:4080/administration/Patient/620c7635-8810-48a7-843e-3b037aa860ae"
                },
                "provision": {
                    "type": "permit"
                },
                "policyRule": {
                    "coding": [
                        {
                            "system": "http://uk-koeln.de/fhir/ValueSet/nngm/nngm-consent-policy",
                            "code": "1a"
                        }
                    ]
                },
                "dateTime": "2021-01-01",
                "id": "82964a95-abed-4a54-ac54-4948a0e63ae0"
            },
            "request": {
                "method": "PUT",
                "url": "Consent/82964a95-abed-4a54-ac54-4948a0e63ae0"
            }
        },
        {
            "resource": {
                "resourceType": "Consent",
                "meta": {
                    "profile": [
                        "http://uk-koeln.de/fhir/StructureDefinition/Consent/nNGM"
                    ]
                },
                "status": "active",
                "scope": {
                    "coding": [
                        {
                            "system": "http://terminology.hl7.org/CodeSystem/consentscope",
                            "code": "patient-privacy"
                        }
                    ]
                },
                "category": [
                    {
                        "coding": [
                            {
                                "system": "http://loinc.org",
                                "code": "59284-0"
                            }
                        ]
                    }
                ],
                "patient": {
                    "reference": "http://localhost:4080/administration/Patient/620c7635-8810-48a7-843e-3b037aa860ae"
                },
                "provision": {
                    "type": "permit"
                },
                "policyRule": {
                    "coding": [
                        {
                            "system": "http://uk-koeln.de/fhir/ValueSet/nngm/nngm-consent-policy",
                            "code": "1b"
                        }
                    ]
                },
                "dateTime": "2021-01-01",
                "id": "091c943d-ddfc-48a7-941f-fd09f7a295a1"
            },
            "request": {
                "method": "PUT",
                "url": "Consent/091c943d-ddfc-48a7-941f-fd09f7a295a1"
            }
        }
    ],
    "id": "fe92827c-6db9-4c2c-a812-c11aa41fb3e7",
    "type": "transaction"
=======
    "id": "7a849e3e-a9c6-49f1-9d50-d89e78c1cf30",
    "type": "collection",
    "entry": [
        {
            "resource": {
                "resourceType": "Bundle",
                "entry": [
                    {
                        "resource": {
                            "resourceType": "Composition",
                            "title": "Stammdaten",
                            "id": "c91c4ef1-1d93-4642-b8b6-445fc16536ea",
                            "meta": {
                                "profile": [
                                    "http://uk-koeln.de/fhir/StructureDefinition/Composition/nNGM/Stammdaten"
                                ]
                            },
                            "status": "final",
                            "type": {
                                "coding": [
                                    {
                                        "system": "http://uk-koeln.de/fhir/CodeSystem/nngm/compositions",
                                        "code": "stammdaten"
                                    }
                                ]
                            },
                            "category": [
                                {
                                    "coding": [
                                        {
                                            "system": "http://uk-koeln.de/fhir/CodeSystem/nngm/composition-category",
                                            "code": "idat"
                                        }
                                    ]
                                }
                            ],
                            "subject": {
                                "reference": "http://localhost:4080/administration/d5459b35-72c5-45e8-96df-c502c415554e"
                            },
                            "date": "2021-01-04T11:47:12+01:00",
                            "section": [
                                {
                                    "code": {
                                        "coding": [
                                            {
                                                "system": "http://uk-koeln.de/fhir/CodeSystem/nngm/sections",
                                                "code": "stammdaten"
                                            }
                                        ]
                                    },
                                    "entry": [
                                        {
                                            "reference": "http://localhost:4080/administration/Patient/d5459b35-72c5-45e8-96df-c502c415554e"
                                        },
                                        {
                                            "reference": "http://localhost:4080/administration/Coverage/916bcf0b-f213-4cb9-a894-0a5c17b71686"
                                        },
                                        {
                                            "reference": "http://localhost:4080/administration/Patient/bc861f2a-2f34-4cfd-9a1c-ad92dcdf9d56"
                                        },
                                        {
                                            "reference": "http://localhost:4080/administration/Consent/1cb328ef-7699-4f50-bc37-41f37b579a2f"
                                        },
                                        {
                                            "reference": "http://localhost:4080/administration/Consent/b91ed9a6-4594-4f47-8032-9e2afa59ddb4"
                                        }
                                    ]
                                }
                            ]
                        }
                    },
                    {
                        "resource": {
                            "resourceType": "Patient",
                            "meta": {
                                "profile": [
                                    "http://uk-koeln.de/fhir/StructureDefinition/Patient/nNGM"
                                ]
                            },
                            "gender": "male",
                            "address": [
                                {
                                    "country": "DEU"
                                }
                            ],
                            "identifier": {
                                "system": "http://uk-koeln.de/fhir/NamingSystem/nNGM/patient-identifier",
                                "value": "1"
                            },
                            "id": "d5459b35-72c5-45e8-96df-c502c415554e",
                            "deceasedDateTime": "2020-10-11",
                            "extension": [
                                {
                                    "url": "http://uk-koeln.de/fhir/StructureDefinition/Extension/nNGM/izt",
                                    "valueCodeableConcept": {
                                        "coding": [
                                            {
                                                "system": "http://uk-koeln.de/fhir/ValueSet/nngm/izt",
                                                "code": "Arztbrief"
                                            }
                                        ]
                                    }
                                }
                            ]
                        },
                        "request": {
                            "method": "PUT",
                            "url": "Patient/d5459b35-72c5-45e8-96df-c502c415554e"
                        }
                    },
                    {
                        "resource": {
                            "resourceType": "Coverage",
                            "meta": {
                                "profile": [
                                    "http://uk-koeln.de/fhir/StructureDefinition/Coverage/nNGM"
                                ]
                            },
                            "status": "active",
                            "beneficiary": {
                                "reference": "http://localhost:4080/administration/Patient/d5459b35-72c5-45e8-96df-c502c415554e"
                            },
                            "subscriber": {
                                "reference": "http://localhost:4080/administration/Patient/d5459b35-72c5-45e8-96df-c502c415554e"
                            },
                            "type": {
                                "coding": [
                                    {
                                        "system": "http://fhir.de/ValueSet/versicherungsart-de-basis",
                                        "code": "GKV"
                                    }
                                ]
                            },
                            "payor": [
                                {
                                    "display": "actimonda krankenkasse"
                                }
                            ],
                            "extension": [
                                {
                                    "url": "http://uk-koeln.de/fhir/StructureDefinition/Extension/nNGM/kooperationsvereinbarung",
                                    "valueBoolean": false
                                }
                            ],
                            "id": "916bcf0b-f213-4cb9-a894-0a5c17b71686"
                        },
                        "request": {
                            "method": "PUT",
                            "url": "Coverage/916bcf0b-f213-4cb9-a894-0a5c17b71686"
                        }
                    },
                    {
                        "resource": {
                            "resourceType": "EpisodeOfCare",
                            "meta": {
                                "profile": [
                                    "http://uk-koeln.de/fhir/StructureDefinition/EpisodeOfCare/nNGM"
                                ]
                            },
                            "patient": {
                                "reference": "http://localhost:4080/administration/Patient/d5459b35-72c5-45e8-96df-c502c415554e"
                            },
                            "status": "active",
                            "_status": {
                                "extension": [
                                    {
                                        "url": "http://uk-koeln.de/fhir/StructureDefinition/Extension/nNGM/FollowUpStatus",
                                        "valueCodeableConcept": {
                                            "coding": [
                                                {
                                                    "system": "http://uk-koeln.de/fhir/ValueSet/FollowUpStatus",
                                                    "code": "lebt"
                                                }
                                            ]
                                        }
                                    }
                                ]
                            },
                            "identifier": [
                                {
                                    "extension": [
                                        {
                                            "url": "http://hl7.org/fhir/StructureDefinition/data-absent-reason",
                                            "valueCode": "not-asked"
                                        }
                                    ]
                                }
                            ],
                            "extension": [
                                {
                                    "url": "http://uk-koeln.de/fhir/StructureDefinition/Extension/nNGM/nngmErstdiagnose",
                                    "valueDateTime": "2020-10-10"
                                },
                                {
                                    "url": "http://uk-koeln.de/fhir/StructureDefinition/Extension/nNGM/abrechnungsinformation/letzterKontakt",
                                    "valueDateTime": "2020-10-10"
                                }
                            ],
                            "id": "bc861f2a-2f34-4cfd-9a1c-ad92dcdf9d56"
                        },
                        "request": {
                            "method": "PUT",
                            "url": "EpisodeOfCare/bc861f2a-2f34-4cfd-9a1c-ad92dcdf9d56"
                        }
                    },
                    {
                        "resource": {
                            "resourceType": "Consent",
                            "meta": {
                                "profile": [
                                    "http://uk-koeln.de/fhir/StructureDefinition/Consent/nNGM"
                                ]
                            },
                            "status": "active",
                            "scope": {
                                "coding": [
                                    {
                                        "system": "http://terminology.hl7.org/CodeSystem/consentscope",
                                        "code": "patient-privacy"
                                    }
                                ]
                            },
                            "category": [
                                {
                                    "coding": [
                                        {
                                            "system": "http://loinc.org",
                                            "code": "59284-0"
                                        }
                                    ]
                                }
                            ],
                            "patient": {
                                "reference": "http://localhost:4080/administration/Patient/d5459b35-72c5-45e8-96df-c502c415554e"
                            },
                            "provision": {
                                "type": "permit"
                            },
                            "policyRule": {
                                "coding": [
                                    {
                                        "system": "http://uk-koeln.de/fhir/ValueSet/nngm/nngm-consent-policy",
                                        "code": "1a"
                                    }
                                ]
                            },
                            "dateTime": "2020-11-01",
                            "id": "1cb328ef-7699-4f50-bc37-41f37b579a2f"
                        },
                        "request": {
                            "method": "PUT",
                            "url": "Consent/1cb328ef-7699-4f50-bc37-41f37b579a2f"
                        }
                    },
                    {
                        "resource": {
                            "resourceType": "Consent",
                            "meta": {
                                "profile": [
                                    "http://uk-koeln.de/fhir/StructureDefinition/Consent/nNGM"
                                ]
                            },
                            "status": "active",
                            "scope": {
                                "coding": [
                                    {
                                        "system": "http://terminology.hl7.org/CodeSystem/consentscope",
                                        "code": "patient-privacy"
                                    }
                                ]
                            },
                            "category": [
                                {
                                    "coding": [
                                        {
                                            "system": "http://loinc.org",
                                            "code": "59284-0"
                                        }
                                    ]
                                }
                            ],
                            "patient": {
                                "reference": "http://localhost:4080/administration/Patient/d5459b35-72c5-45e8-96df-c502c415554e"
                            },
                            "provision": {
                                "type": "permit"
                            },
                            "policyRule": {
                                "coding": [
                                    {
                                        "system": "http://uk-koeln.de/fhir/ValueSet/nngm/nngm-consent-policy",
                                        "code": "1b"
                                    }
                                ]
                            },
                            "dateTime": "2020-11-01",
                            "id": "b91ed9a6-4594-4f47-8032-9e2afa59ddb4"
                        },
                        "request": {
                            "method": "PUT",
                            "url": "Consent/b91ed9a6-4594-4f47-8032-9e2afa59ddb4"
                        }
                    }
                ],
                "id": "ae2dc6e9-b243-49ce-a561-422cad6581e1",
                "type": "transaction"
            }
        }
    ]
>>>>>>> no message
}