{
    "resourceType": "Bundle",
    "entry": [
        {
            "resource": {
                "resourceType": "Composition",
                "title": "Stammdaten",
                "id": "70401ffe-5c5b-4d0e-982d-51eaaefbcf63",
                "meta": {
                    "profile": [
                        "http://uk-koeln.de/fhir/StructureDefinition/Composition/nNGM/Stammdaten-pseudonymisiert"
                    ]
                },
                "status": "final",
                "type": {
                    "coding": [
                        {
                            "system": "http://uk-koeln.de/fhir/CodeSystem/nngm/compositions",
                            "code": "stammdaten"
                        }
                    ]
                },
                "category": [
                    {
                        "coding": [
                            {
                                "system": "http://uk-koeln.de/fhir/CodeSystem/nngm/composition-category",
                                "code": "idat"
                            }
                        ]
                    }
                ],
                "subject": {
                    "reference": "http://localhost:4080/administration/620c7635-8810-48a7-843e-3b037aa860ae",
                    "identifier": {
                        "system": "http://uk-koeln.de/fhir/NamingSystem/nNGM/patient-identifier",
                        "value": ""
                    }
                },
                "date": "2021-01-07T10:54:59+01:00",
                "section": [
                    {
                        "code": {
                            "coding": [
                                {
                                    "system": "http://uk-koeln.de/fhir/CodeSystem/nngm/sections",
                                    "code": "stammdaten"
                                }
                            ]
                        },
                        "entry": [
                            {
                                "reference": "http://localhost:4080/administration/Patient/620c7635-8810-48a7-843e-3b037aa860ae"
                            },
                            {
                                "reference": "http://localhost:4080/administration/Coverage/bdd7d7de-4326-45f1-9168-8c1adbf5f624"
                            },
                            {
                                "reference": "http://localhost:4080/administration/Patient/0ea3bde8-0fb5-472b-8cc0-437e96ca548c"
                            },
                            {
                                "reference": "http://localhost:4080/administration/Consent/82964a95-abed-4a54-ac54-4948a0e63ae0"
                            },
                            {
                                "reference": "http://localhost:4080/administration/Consent/091c943d-ddfc-48a7-941f-fd09f7a295a1"
                            }
                        ]
                    }
                ]
            }
        },
        {
            "resource": {
                "resourceType": "Patient",
                "meta": {
                    "profile": [
                        "http://uk-koeln.de/fhir/StructureDefinition/Patient/nNGM"
                    ]
                },
                "gender": "male",
                "address": [
                    {
                        "country": "AUT"
                    }
                ],
                "id": "620c7635-8810-48a7-843e-3b037aa860ae"
            },
            "request": {
                "method": "PUT",
                "url": "Patient/620c7635-8810-48a7-843e-3b037aa860ae"
            }
        },
        {
            "resource": {
                "resourceType": "Coverage",
                "meta": {
                    "profile": [
                        "http://uk-koeln.de/fhir/StructureDefinition/Coverage/nNGM"
                    ]
                },
                "status": "active",
                "beneficiary": {
                    "reference": "http://localhost:4080/administration/Patient/620c7635-8810-48a7-843e-3b037aa860ae"
                },
                "subscriber": {
                    "reference": "http://localhost:4080/administration/Patient/620c7635-8810-48a7-843e-3b037aa860ae"
                },
                "type": {
                    "coding": [
                        {
                            "system": "http://fhir.de/ValueSet/versicherungsart-de-basis",
                            "code": "GKV"
                        }
                    ]
                },
                "payor": [
                    {
                        "display": "AOK Bremen/Bremerhaven"
                    }
                ],
                "extension": [
                    {
                        "url": "http://uk-koeln.de/fhir/StructureDefinition/Extension/nNGM/kooperationsvereinbarung",
                        "valueBoolean": false
                    }
                ],
                "id": "bdd7d7de-4326-45f1-9168-8c1adbf5f624"
            },
            "request": {
                "method": "PUT",
                "url": "Coverage/bdd7d7de-4326-45f1-9168-8c1adbf5f624"
            }
        },
        {
            "resource": {
                "resourceType": "EpisodeOfCare",
                "meta": {
                    "profile": [
                        "http://uk-koeln.de/fhir/StructureDefinition/EpisodeOfCare/nNGM"
                    ]
                },
                "patient": {
                    "reference": "http://localhost:4080/administration/Patient/620c7635-8810-48a7-843e-3b037aa860ae"
                },
                "status": "active",
                "_status": {
                    "extension": [
                        {
                            "url": "http://uk-koeln.de/fhir/StructureDefinition/Extension/nNGM/FollowUpStatus",
                            "valueCodeableConcept": {
                                "coding": [
                                    {
                                        "system": "http://uk-koeln.de/fhir/ValueSet/FollowUpStatus",
                                        "code": "lebt"
                                    }
                                ]
                            }
                        }
                    ]
                },
                "identifier": [
                    {
                        "extension": [
                            {
                                "url": "http://hl7.org/fhir/StructureDefinition/data-absent-reason",
                                "valueCode": "not-asked"
                            }
                        ]
                    }
                ],
                "id": "0ea3bde8-0fb5-472b-8cc0-437e96ca548c"
            },
            "request": {
                "method": "PUT",
                "url": "EpisodeOfCare/0ea3bde8-0fb5-472b-8cc0-437e96ca548c"
            }
        },
        {
            "resource": {
                "resourceType": "Consent",
                "meta": {
                    "profile": [
                        "http://uk-koeln.de/fhir/StructureDefinition/Consent/nNGM"
                    ]
                },
                "status": "active",
                "scope": {
                    "coding": [
                        {
                            "system": "http://terminology.hl7.org/CodeSystem/consentscope",
                            "code": "patient-privacy"
                        }
                    ]
                },
                "category": [
                    {
                        "coding": [
                            {
                                "system": "http://loinc.org",
                                "code": "59284-0"
                            }
                        ]
                    }
                ],
                "patient": {
                    "reference": "http://localhost:4080/administration/Patient/620c7635-8810-48a7-843e-3b037aa860ae"
                },
                "provision": {
                    "type": "permit"
                },
                "policyRule": {
                    "coding": [
                        {
                            "system": "http://uk-koeln.de/fhir/ValueSet/nngm/nngm-consent-policy",
                            "code": "1a"
                        }
                    ]
                },
                "dateTime": "2021-01-01",
                "id": "82964a95-abed-4a54-ac54-4948a0e63ae0"
            },
            "request": {
                "method": "PUT",
                "url": "Consent/82964a95-abed-4a54-ac54-4948a0e63ae0"
            }
        },
        {
            "resource": {
                "resourceType": "Consent",
                "meta": {
                    "profile": [
                        "http://uk-koeln.de/fhir/StructureDefinition/Consent/nNGM"
                    ]
                },
                "status": "active",
                "scope": {
                    "coding": [
                        {
                            "system": "http://terminology.hl7.org/CodeSystem/consentscope",
                            "code": "patient-privacy"
                        }
                    ]
                },
                "category": [
                    {
                        "coding": [
                            {
                                "system": "http://loinc.org",
                                "code": "59284-0"
                            }
                        ]
                    }
                ],
                "patient": {
                    "reference": "http://localhost:4080/administration/Patient/620c7635-8810-48a7-843e-3b037aa860ae"
                },
                "provision": {
                    "type": "permit"
                },
                "policyRule": {
                    "coding": [
                        {
                            "system": "http://uk-koeln.de/fhir/ValueSet/nngm/nngm-consent-policy",
                            "code": "1b"
                        }
                    ]
                },
                "dateTime": "2021-01-01",
                "id": "091c943d-ddfc-48a7-941f-fd09f7a295a1"
            },
            "request": {
                "method": "PUT",
                "url": "Consent/091c943d-ddfc-48a7-941f-fd09f7a295a1"
            }
        }
    ],
    "id": "fe92827c-6db9-4c2c-a812-c11aa41fb3e7",
    "type": "transaction"
}