{
  "resourceType": "Bundle",
  "entry": [
    {
      "resource": {
        "resourceType": "Composition",
        "title": "Stammdaten pseudonymisiert",
        "id": "e8b7f271-4bf7-48bc-9a20-9ea86cce20dd",
        "meta": {
          "profile": [
            "http://uk-koeln.de/fhir/StructureDefinition/Composition/nNGM/Stammdaten-pseudonymisiert"
          ]
        },
        "status": "final",
        "type": {
          "coding": [
            {
              "system": "http://uk-koeln.de/fhir/CodeSystem/nngm/compositions",
              "code": "stammdaten"
            }
          ]
        },
        "category": [
          {
            "coding": [
              {
                "system": "http://uk-koeln.de/fhir/CodeSystem/nngm/composition-category",
                "code": "psn"
              }
            ]
          }
        ],
        "subject": {
          "reference": "http://127.0.0.1:4080/administration/5014fdda-4a6e-47d1-abdd-4632c66c9bf2",
          "identifier": {
            "system": "http://uk-koeln.de/fhir/NamingSystem/nNGM/patient-identifier",
            "value": ""
          }
        },
        "date": "2021-01-19T11:46:46+01:00",
        "author": [
          {
            "extension": [
              {
                "url": "http://hl7.org/fhir/StructureDefinition/data-absent-reason",
                "valueCode": "not-asked"
              }
            ]
          }
        ],
        "section": [
          {
            "code": {
              "coding": [
                {
                  "system": "http://uk-koeln.de/fhir/CodeSystem/nngm/sections",
                  "code": "stammdaten"
                }
              ]
            },
            "entry": [
              {
                "reference": "http://127.0.0.1:4080/administration/Patient/5014fdda-4a6e-47d1-abdd-4632c66c9bf2"
              },
              {
                "reference": "http://127.0.0.1:4080/administration/Coverage/55f4223c-3af6-4e2c-81e0-9daaf03c1e27"
              },
              {
                "reference": "http://127.0.0.1:4080/administration/EpisodeOfCare/b739333f-7ba2-423f-b007-c57f88beb190"
              },
              {
                "reference": "http://127.0.0.1:4080/administration/Consent/b8e0f86d-9bf5-4f01-a625-ac968aad26a4"
              },
              {
                "reference": "http://127.0.0.1:4080/administration/Consent/c1e54b52-2ae3-40a7-a42d-dc8f6900c834"
              }
            ]
          }
        ]
      },
      "request": {
        "method": "PUT",
        "url": "Composition/e8b7f271-4bf7-48bc-9a20-9ea86cce20dd"
      }
    },
    {
      "resource": {
        "resourceType": "Patient",
        "meta": {
          "profile": [
            "http://uk-koeln.de/fhir/StructureDefinition/Patient/nNGM/pseudonymisiert"
          ]
        },
        "identifier": [
          {
            "system": "http://uk-koeln.de/fhir/NamingSystem/nNGM/patient-identifier",
            "value": ""
          }
        ],
        "birthDate": "2021-01-19",
        "_gender": {
          "extension": [
            {
              "url": "http://fhir.de/StructureDefinition/gender-amtlich-de",
              "valueCodeableConcept": {
                "coding": [
                  {
                    "system": "http://fhir.de/CodeSystem/gender-amtlich-de",
                    "code": "D",
                    "display": "divers"
                  }
                ]
              }
            }
          ]
        },
        "id": "5014fdda-4a6e-47d1-abdd-4632c66c9bf2",
        "deceasedDateTime": "2020-02-01",
        "extension": [
          {
            "url": "http://uk-koeln.de/fhir/StructureDefinition/Extension/nNGM/izt",
            "valueCodeableConcept": {
              "coding": [
                {
                  "system": "http://uk-koeln.de/fhir/CodeSystem/nngm/izt",
                  "code": "Arztbrief"
                }
              ]
            }
          }
        ]
      },
      "request": {
        "method": "PUT",
        "url": "Patient/5014fdda-4a6e-47d1-abdd-4632c66c9bf2"
      }
    },
    {
      "resource": {
        "resourceType": "Coverage",
        "meta": {
          "profile": [
            "http://uk-koeln.de/fhir/StructureDefinition/Coverage/nNGM/pseudonymisiert"
          ]
        },
        "status": "active",
        "beneficiary": {
          "reference": "http://127.0.0.1:4080/administration/Patient/5014fdda-4a6e-47d1-abdd-4632c66c9bf2"
        },
        "subscriber": {
          "reference": "http://127.0.0.1:4080/administration/Patient/5014fdda-4a6e-47d1-abdd-4632c66c9bf2"
        },
        "type": {
          "coding": [
            {
              "system": "http://fhir.de/CodeSystem/versicherungsart-de-basis",
              "code": "PKV"
            }
          ]
        },
        "extension": [
          {
            "url": "http://uk-koeln.de/fhir/StructureDefinition/Extension/nNGM/pkvTarifform",
            "valueCodeableConcept": {
              "coding": [
                {
                  "system": "http://uk-koeln.de/fhir/CodeSystem/nngm/pkv-tarifform",
                  "code": "standard"
                }
              ]
            }
          },
          {
            "url": "http://uk-koeln.de/fhir/StructureDefinition/Extension/nNGM/kooperationsvereinbarung",
            "valueBoolean": false
          }
        ],
        "payor": [
          {
            "display": "Allianz Private Krankenversicherung"
          }
        ],
        "id": "55f4223c-3af6-4e2c-81e0-9daaf03c1e27"
      },
      "request": {
        "method": "PUT",
        "url": "Coverage/55f4223c-3af6-4e2c-81e0-9daaf03c1e27"
      }
    },
    {
      "resource": {
        "resourceType": "EpisodeOfCare",
        "meta": {
          "profile": [
            "http://uk-koeln.de/fhir/StructureDefinition/EpisodeOfCare/nNGM"
          ]
        },
        "patient": {
          "reference": "http://127.0.0.1:4080/administration/Patient/5014fdda-4a6e-47d1-abdd-4632c66c9bf2"
        },
        "status": "active",
        "identifier": [
          {
            "extension": [
              {
                "url": "http://hl7.org/fhir/StructureDefinition/data-absent-reason",
                "valueCode": "not-asked"
              }
            ]
          }
        ],
        "extension": [
          {
            "url": "http://uk-koeln.de/fhir/StructureDefinition/Extension/nNGM/FollowUpStatus",
            "valueCodeableConcept": {
              "coding": [
                {
                  "system": "http://uk-koeln.de/fhir/CodeSystem/ngnm/FollowUpStatus",
                  "code": "lebt"
                }
              ]
            }
          },
          {
            "url": "http://uk-koeln.de/fhir/StructureDefinition/Extension/nNGM/Erstdiagnose",
            "valueDateTime": "2021-01-01"
          },
          {
            "url": "http://uk-koeln.de/fhir/StructureDefinition/Extension/nNGM/abrechnungsinformation/letzterKontakt",
            "valueDateTime": "2021-01-02"
          }
        ],
        "id": "b739333f-7ba2-423f-b007-c57f88beb190"
      },
      "request": {
        "method": "PUT",
        "url": "EpisodeOfCare/b739333f-7ba2-423f-b007-c57f88beb190"
      }
    },
    {
      "resource": {
        "resourceType": "Consent",
        "meta": {
          "profile": [
            "http://uk-koeln.de/fhir/StructureDefinition/Consent/nNGM"
          ]
        },
        "status": "active",
        "scope": {
          "coding": [
            {
              "system": "http://terminology.hl7.org/CodeSystem/consentscope",
              "code": "patient-privacy"
            }
          ]
        },
        "category": [
          {
            "coding": [
              {
                "system": "http://loinc.org",
                "code": "59284-0"
              }
            ]
          }
        ],
        "patient": {
          "reference": "http://127.0.0.1:4080/administration/Patient/5014fdda-4a6e-47d1-abdd-4632c66c9bf2"
        },
        "provision": {
          "type": "permit"
        },
        "policyRule": {
          "coding": [
            {
              "system": "http://uk-koeln.de/fhir/CodeSystem/nngm/nngm-consent-policy",
              "code": "1a"
            }
          ]
        },
        "dateTime": "2021-01-01",
        "id": "b8e0f86d-9bf5-4f01-a625-ac968aad26a4"
      },
      "request": {
        "method": "PUT",
        "url": "Consent/b8e0f86d-9bf5-4f01-a625-ac968aad26a4"
      }
    },
    {
      "resource": {
        "resourceType": "Consent",
        "meta": {
          "profile": [
            "http://uk-koeln.de/fhir/StructureDefinition/Consent/nNGM"
          ]
        },
        "status": "active",
        "scope": {
          "coding": [
            {
              "system": "http://terminology.hl7.org/CodeSystem/consentscope",
              "code": "patient-privacy"
            }
          ]
        },
        "category": [
          {
            "coding": [
              {
                "system": "http://loinc.org",
                "code": "59284-0"
              }
            ]
          }
        ],
        "patient": {
          "reference": "http://127.0.0.1:4080/administration/Patient/5014fdda-4a6e-47d1-abdd-4632c66c9bf2"
        },
        "provision": {
          "type": "permit"
        },
        "policyRule": {
          "coding": [
            {
              "system": "http://uk-koeln.de/fhir/CodeSystem/nngm/nngm-consent-policy",
              "code": "1b"
            }
          ]
        },
        "dateTime": "2021-01-02",
        "id": "c1e54b52-2ae3-40a7-a42d-dc8f6900c834"
      },
      "request": {
        "method": "PUT",
        "url": "Consent/c1e54b52-2ae3-40a7-a42d-dc8f6900c834"
      }
    },
    {
      "resource": {
        "resourceType": "Bundle",
        "entry": [
          {
            "resource": {
              "resourceType": "Composition",
              "id": "83c0e728-62f5-4dfc-b965-4a75b0324010",
              "meta": {
                "profile": [
                  "http://uk-koeln.de/fhir/StructureDefinition/Composition/nNGM/Therapie-pseudonymisiert"
                ]
              },
              "type": {
                "coding": [
                  {
                    "system": "http://uk-koeln.de/fhir/CodeSystem/nngm/compositions",
                    "code": "therapie"
                  }
                ]
              },
              "category": [
                {
                  "coding": [
                    {
                      "system": "http://uk-koeln.de/fhir/CodeSystem/nngm/composition-category",
                      "code": "psn"
                    }
                  ]
                }
              ],
              "title": "Therapie pseudonymisiert",
              "status": "final",
              "subject": {
                "reference": "http://localhost:4080/administration/574f117e-4003-49ff-b5ac-4e3ae527e37b",
                "identifier": {
                  "system": "http://uk-koeln.de/fhir/NamingSystem/nNGM/patient-identifier",
                  "value": "8OH6ytqA"
                }
              },
              "date": "2021-02-22T13:18:11+01:00",
              "author": [
                {
                  "reference": "https://clinicalsite.org/person/38"
                }
              ],
              "section": [
                {
                  "code": {
                    "coding": [
                      {
                        "system": "http://uk-koeln.de/fhir/CodeSystem/nngm/sections",
                        "code": "operation"
                      }
                    ]
                  },
                  "entry": [
                    {
                      "reference": "http://localhost:4080/administration/Procedure/5d29c5cc-d54b-4ddc-8bac-c93708759ba5"
                    },
                    {
                      "display": "operation",
                      "identifier": {
                        "system": "http://uk-koeln.de/NamingSystem/nNGM/formularId",
                        "value": "1"
                      }
                    }
                  ]
                },
                {
                  "code": {
                    "coding": [
                      {
                        "system": "http://uk-koeln.de/fhir/CodeSystem/nngm/sections",
                        "code": "systemischeTherapie"
                      }
                    ]
                  },
                  "entry": [
                    {
                      "reference": "http://localhost:4080/administration/MedicationAdministration/4cffc8e4-370e-4299-8787-d810f34822a5"
                    },
                    {
                      "reference": "http://localhost:4080/administration/Observation/c8ab2860-b0b1-4244-bfc8-fc771f1f75ed"
                    },
                    {
                      "reference": "http://localhost:4080/administration/Observation/b5021fac-9760-4e96-9850-7bfd2406455f"
                    },
                    {
                      "display": "systemischeTherapie",
                      "identifier": {
                        "system": "http://uk-koeln.de/NamingSystem/nNGM/formularId",
                        "value": "1"
                      }
                    }
                  ]
                },
                {
                  "code": {
                    "coding": [
                      {
                        "system": "http://uk-koeln.de/fhir/CodeSystem/nngm/sections",
                        "code": "strahlentherapie"
                      }
                    ]
                  },
                  "entry": [
                    {
                      "reference": "http://localhost:4080/administration/Procedure/bee5502b-6ffa-4c70-b1fd-fbcfedbcaeb7"
                    },
                    {
                      "reference": "http://localhost:4080/administration/EpisodeOfCare/be2ab755-e547-4481-8955-c6cedb0057c1"
                    },
                    {
                      "display": "strahlentherapie",
                      "identifier": {
                        "system": "http://uk-koeln.de/NamingSystem/nNGM/formularId",
                        "value": "1"
                      }
                    }
                  ]
                },
                {
                  "code": {
                    "coding": [
                      {
                        "system": "http://uk-koeln.de/fhir/CodeSystem/nngm/sections",
                        "code": "sonstigeTherapie"
                      }
                    ]
                  },
                  "entry": [
                    {
                      "reference": "http://localhost:4080/administration/Procedure/1cc760d8-2f9d-41e9-950a-84f38f32019c"
                    },
                    {
                      "display": "sonstigeTherapie",
                      "identifier": {
                        "system": "http://uk-koeln.de/NamingSystem/nNGM/formularId",
                        "value": "1"
                      }
                    }
                  ]
                },
                {
                  "code": {
                    "coding": [
                      {
                        "system": "http://uk-koeln.de/fhir/CodeSystem/nngm/sections",
                        "code": "operation"
                      }
                    ]
                  },
                  "entry": [
                    {
                      "reference": "http://localhost:4080/administration/Procedure/7976706b-2f00-4077-8a17-862e37b44cef"
                    },
                    {
                      "display": "operation",
                      "identifier": {
                        "system": "http://uk-koeln.de/NamingSystem/nNGM/formularId",
                        "value": "2"
                      }
                    }
                  ]
                },
                {
                  "code": {
                    "coding": [
                      {
                        "system": "http://uk-koeln.de/fhir/CodeSystem/nngm/sections",
                        "code": "systemischeTherapie"
                      }
                    ]
                  },
                  "entry": [
                    {
                      "reference": "http://localhost:4080/administration/MedicationAdministration/42c6b0ac-db9e-4404-addd-7a15e9c84668"
                    },
                    {
                      "reference": "http://localhost:4080/administration/Observation/c3ab388e-666d-42ff-8486-6cdfb0197fde"
                    },
                    {
                      "reference": "http://localhost:4080/administration/Observation/55d0ca52-e2c0-47ce-ab85-cf1f56f756fa"
                    },
                    {
                      "display": "systemischeTherapie",
                      "identifier": {
                        "system": "http://uk-koeln.de/NamingSystem/nNGM/formularId",
                        "value": "2"
                      }
                    }
                  ]
                },
                {
                  "code": {
                    "coding": [
                      {
                        "system": "http://uk-koeln.de/fhir/CodeSystem/nngm/sections",
                        "code": "strahlentherapie"
                      }
                    ]
                  },
                  "entry": [
                    {
                      "reference": "http://localhost:4080/administration/Procedure/b93e8231-325a-4ea1-a54a-3a45a57b50dd"
                    },
                    {
                      "display": "strahlentherapie",
                      "identifier": {
                        "system": "http://uk-koeln.de/NamingSystem/nNGM/formularId",
                        "value": "2"
                      }
                    }
                  ]
                },
                {
                  "code": {
                    "coding": [
                      {
                        "system": "http://uk-koeln.de/fhir/CodeSystem/nngm/sections",
                        "code": "sonstigeTherapie"
                      }
                    ]
                  },
                  "entry": [
                    {
                      "reference": "http://localhost:4080/administration/Procedure/f0bd7ddb-0eee-4035-a040-81a6797bbc7d"
                    },
                    {
                      "display": "sonstigeTherapie",
                      "identifier": {
                        "system": "http://uk-koeln.de/NamingSystem/nNGM/formularId",
                        "value": "2"
                      }
                    }
                  ]
                }
              ]
            },
            "request": {
              "method": "PUT",
              "url": "Composition/83c0e728-62f5-4dfc-b965-4a75b0324010"
            }
          },
          {
            "resource": {
              "resourceType": "Procedure",
              "meta": {
                "profile": [
                  "http://uk-koeln.de/fhir/StructureDefinition/Procedure/nNGM/OP"
                ]
              },
              "status": "unknown",
              "subject": {
                "reference": "http://localhost:4080/administration/Patient/574f117e-4003-49ff-b5ac-4e3ae527e37b"
              },
              "code": {
                "coding": [
                  {
                    "system": "http://ncit.nci.nih.gov",
                    "code": "C15329"
                  }
                ],
                "extension": [
                  {
                    "url": "http://uk-koeln.de/fhir/StructureDefinition/Extension/nNGM/art-des-eingriffs",
                    "valueCodeableConcept": {
                      "coding": [
                        {
                          "system": "http://uk-koeln.de/fhir/CodeSystem/ngnm/OperationArtDesEingriffs",
                          "code": "Pneumektomie"
                        }
                      ]
                    }
                  },
                  {
                    "url": "http://uk-koeln.de/fhir/StructureDefinition/Extension/nNGM/art-des-eingriffs",
                    "valueCodeableConcept": {
                      "coding": [
                        {
                          "system": "http://uk-koeln.de/fhir/CodeSystem/ngnm/OperationArtDesEingriffs",
                          "code": "Thorakoskopie mit Pleurodese"
                        }
                      ]
                    }
                  },
                  {
                    "url": "http://uk-koeln.de/fhir/StructureDefinition/Extension/nNGM/art-des-eingriffs",
                    "valueCodeableConcept": {
                      "coding": [
                        {
                          "system": "http://uk-koeln.de/fhir/CodeSystem/ngnm/OperationArtDesEingriffs",
                          "code": "Pleurektomie (Dekortikation)"
                        }
                      ]
                    }
                  },
                  {
                    "url": "http://uk-koeln.de/fhir/StructureDefinition/Extension/nNGM/art-des-eingriffs",
                    "valueCodeableConcept": {
                      "coding": [
                        {
                          "system": "http://terminology.hl7.org/CodeSystem/data-absent-reason",
                          "code": "unknown"
                        }
                      ]
                    }
                  },
                  {
                    "url": "http://uk-koeln.de/fhir/StructureDefinition/Extension/nNGM/resektion",
                    "extension": [
                      {
                        "url": "resektionsart",
                        "valueCodeableConcept": {
                          "coding": [
                            {
                              "system": "http://uk-koeln.de/fhir/CodeSystem/nngm/OperationArtResektion",
                              "code": "Lympfknotenresektion (anders als Lymphadenektomie)"
                            }
                          ]
                        }
                      },
                      {
                        "url": "resektionsart",
                        "valueCodeableConcept": {
                          "coding": [
                            {
                              "system": "http://uk-koeln.de/fhir/CodeSystem/nngm/OperationArtResektion",
                              "code": "Revisions-OP wg. Komplikationen"
                            }
                          ]
                        }
                      },
                      {
                        "url": "resektionsart",
                        "valueCodeableConcept": {
                          "coding": [
                            {
                              "system": "http://terminology.hl7.org/CodeSystem/data-absent-reason",
                              "code": "unknown"
                            }
                          ]
                        }
                      },
                      {
                        "url": "resektionsstatus",
                        "valueCodeableConcept": {
                          "coding": [
                            {
                              "system": "http://terminology.hl7.org/CodeSystem/data-absent-reason",
                              "code": "unknown"
                            }
                          ]
                        }
                      }
                    ]
                  }
                ]
              },
              "performer": [
                {
                  "actor": {
                    "display": "ausländische Einrichtung"
                  }
                }
              ],
              "performedDateTime": "2001-01-01",
              "reasonCode": [
                {
                  "coding": [
                    {
                      "system": "http://uk-koeln.de/fhir/CodeSystem/nngm/intention-therapie",
                      "code": "Kurativ"
                    }
                  ]
                }
              ],
              "extension": [
                {
                  "url": "http://uk-koeln.de/fhir/StructureDefinition/Extension/nNGM/lymphadenektomie",
                  "extension": [
                    {
                      "url": "http://hl7.org/fhir/StructureDefinition/data-absent-reason",
                      "valueCode": "not-asked"
                    }
                  ]
                }
              ],
              "bodySite": [
                {
                  "coding": [
                    {
                      "system": "http://uk-koeln.de/fhir/CodeSystem/nNGM/OperationLokalisation",
                      "code": "Nebenniere"
                    },
                    {
                      "system": "http://uk-koeln.de/fhir/CodeSystem/nNGM/OperationLokalisation",
                      "code": "other"
                    },
                    {
                      "system": "http://uk-koeln.de/fhir/CodeSystem/nNGM/OperationLokalisation",
                      "code": "other"
                    },
                    {
                      "system": "http://terminology.hl7.org/CodeSystem/data-absent-reason",
                      "code": "not-applicable"
                    },
                    {
                      "system": "http://ncit.nci.nih.gov",
                      "code": "C17649"
                    }
                  ],
                  "text": "other"
                },
                {
                  "extension": [
                    {
                      "url": "http://uk-koeln.de/fhir/StructureDefinition/Extension/nNGM/seitenlokalisation",
                      "valueCodeableConcept": {
                        "coding": [
                          {
                            "system": "http://uk-koeln.de/fhir/CodeSystem/nngm/OperationSeitenlokalisation",
                            "code": "Mittig"
                          }
                        ]
                      }
                    }
                  ]
                }
              ],
              "note": [
                {
                  "text": "OP Bem"
                }
              ],
              "id": "5d29c5cc-d54b-4ddc-8bac-c93708759ba5"
            },
            "request": {
              "method": "PUT",
              "url": "Procedure/5d29c5cc-d54b-4ddc-8bac-c93708759ba5"
            }
          },
          {
            "resource": {
              "resourceType": "MedicationAdministration",
              "meta": {
                "profile": [
                  "http://uk-koeln.de/fhir/StructureDefinition/Procedure/nNGM/MedicationAdministration"
                ]
              },
              "subject": {
                "reference": "http://localhost:4080/administration/Patient/574f117e-4003-49ff-b5ac-4e3ae527e37b"
              },
              "category": {
                "coding": [
                  {
                    "system": "http://ncit.nci.nih.gov",
                    "code": "C85582"
                  }
                ]
              },
              "context": {
                "identifier": {
                  "system": "http://www.acme.com/identifiers/patient",
                  "value": "111"
                }
              },
              "statusReason": [
                {
                  "coding": [
                    {
                      "system": "https://www.uk-koeln.de/nngm/CodeSystem/ST_Ende_Grund",
                      "code": "Abbruch wegen Nebenwirkungen"
                    },
                    {
                      "system": "http://terminology.hl7.org/CodeSystem/data-absent-reason",
                      "code": "not-applicable"
                    }
                  ]
                }
              ],
              "status": "unknown",
              "supportingInformation": [
                {
                  "display": "Tinfo"
                },
                {
                  "extension": [
                    {
                      "url": "http://uk-koeln.de/fhir/StructureDefinition/Extension/nNGM/therapieinformationen",
                      "extension": [
                        {
                          "url": "hilfreich",
                          "valueBoolean": false
                        }
                      ]
                    }
                  ]
                },
                {
                  "extension": [
                    {
                      "url": "http://uk-koeln.de/fhir/StructureDefinition/Extension/nNGM/therapieinformationen",
                      "extension": [
                        {
                          "url": "umgesetzt",
                          "valueBoolean": true
                        }
                      ]
                    }
                  ]
                }
              ],
              "performer": [
                {
                  "actor": {
                    "display": "niedergelassene Einrichtung - Pneumologie"
                  }
                }
              ],
              "reasonCode": [
                {
                  "coding": [
                    {
                      "system": "http://uk-koeln.de/fhir/CodeSystem/nngm/intention-therapie",
                      "code": "Palliativ",
                      "display": "Palliativ"
                    }
                  ]
                }
              ],
              "extension": [
                {
                  "url": "http://uk-koeln.de/fhir/StructureDefinition/Extension/cancer-base/studientherapie",
                  "extension": [
                    {
                      "url": "teilnahme",
                      "valueBoolean": false
                    },
                    {
                      "url": "medikament",
                      "valueCodeableConcept": {
                        "coding": [
                          {
                            "system": "http://uk-koeln.de/fhir/CodeSystem/nNGM/SystemischeTherapieMedikation",
                            "code": "Bevacizumab/Pemetrexed"
                          }
                        ]
                      }
                    }
                  ]
                },
                {
                  "url": "http://uk-koeln.de/fhir/StructureDefinition/Extension/nNGM/OffLabelTherapie",
                  "valueBoolean": false
                },
                {
                  "url": "http://uk-koeln.de/fhir/StructureDefinition/Extension/erhaltungstherapie",
                  "extension": [
                    {
                      "url": "option",
                      "valueBoolean": true
                    }
                  ]
                }
              ],
              "effectivePeriod": {
                "start": "2002-01-01",
                "end": "2002-02-02"
              },
              "medicationCodeableConcept": {
                "coding": [
                  {
                    "system": "http://uk-koeln.de/fhir/CodeSystem/nNGM/SystemischeTherapieMedikation",
                    "code": "BGJ398"
                  }
                ]
              },
              "dosage": {
                "rateQuantity": {
                  "system": "http://unitsofmeasure.org",
                  "code": "1",
                  "value": 1
                }
              },
              "note": [
                {
                  "text": "SY1 Bem"
                }
              ],
              "id": "4cffc8e4-370e-4299-8787-d810f34822a5"
            },
            "request": {
              "method": "PUT",
              "url": "MedicationAdministration/4cffc8e4-370e-4299-8787-d810f34822a5"
            }
          },
          {
            "resource": {
              "resourceType": "Observation",
              "meta": {
                "profile": [
                  "http://uk-koeln.de/fhir/StructureDefinition/Observation/nNGM/ecog"
                ]
              },
              "status": "final",
              "category": [
                {
                  "coding": [
                    {
                      "system": "http://terminology.hl7.org/CodeSystem/observation-category",
                      "code": "survey"
                    }
                  ]
                }
              ],
              "code": {
                "coding": [
                  {
                    "system": "http://loinc.org",
                    "code": "89247-1"
                  }
                ]
              },
              "subject": {
                "reference": "http://localhost:4080/administration/Patient/574f117e-4003-49ff-b5ac-4e3ae527e37b"
              },
              "valueCodeableConcept": {
                "coding": [
                  {
                    "system": "http://terminology.hl7.org/CodeSystem/data-absent-reason",
                    "code": "not-applicable",
                    "display": "Not Applicable"
                  }
                ]
              },
              "id": "c8ab2860-b0b1-4244-bfc8-fc771f1f75ed"
            },
            "request": {
              "method": "PUT",
              "url": "Observation/c8ab2860-b0b1-4244-bfc8-fc771f1f75ed"
            }
          },
          {
            "resource": {
              "resourceType": "Observation",
              "meta": {
                "profile": [
                  "http://uk-koeln.de/fhir/StructureDefinition/Observation/nNGM/best-response"
                ]
              },
              "status": "unknown",
              "category": [
                {
                  "coding": [
                    {
                      "system": "http://terminology.hl7.org/CodeSystem/observation-category",
                      "code": "therapy"
                    }
                  ]
                }
              ],
              "code": {
                "coding": [
                  {
                    "system": "http://ncit.nci.nih.gov",
                    "code": "C94536"
                  }
                ]
              },
              "subject": {
                "reference": "http://localhost:4080/administration/Patient/574f117e-4003-49ff-b5ac-4e3ae527e37b"
              },
              "valueCodeableConcept": {
                "coding": [
                  {
                    "system": "http://uk-koeln.de/fhir/CodeSystem/nngm/SystemischeTherapieRECIST",
                    "code": "SD",
                    "display": "Stable Disease"
                  }
                ]
              },
              "method": {
                "coding": [
                  {
                    "system": "http://uk-koeln.de/fhir/CodeSystem/nngm/SystemischeTherapieBeurteilungNach",
                    "code": "Behandelnder Arzt"
                  }
                ]
              },
              "partOf": [
                {
                  "reference": "http://localhost:4080/administration/MedicationAdministration/4cffc8e4-370e-4299-8787-d810f34822a5"
                }
              ],
              "id": "b5021fac-9760-4e96-9850-7bfd2406455f"
            },
            "request": {
              "method": "PUT",
              "url": "Observation/b5021fac-9760-4e96-9850-7bfd2406455f"
            }
          },
          {
            "resource": {
              "resourceType": "Procedure",
              "meta": {
                "profile": [
                  "http://uk-koeln.de/fhir/StructureDefinition/Procedure/nNGM/Strahlentherapie"
                ]
              },
              "category": {
                "coding": [
                  {
                    "system": "http://uk-koeln.de/fhir/CodeSystem/cancer-base/procedure-category",
                    "code": "radiotherapy"
                  }
                ]
              },
              "code": {
                "coding": [
                  {
                    "system": "http://ncit.nci.nih.gov",
                    "code": "C15313"
                  }
                ],
                "extension": [
                  {
                    "url": "http://uk-koeln.de/fhir/StructureDefinition/Extension/nNGM/art-der-bestrahlung",
                    "valueCodeableConcept": {
                      "coding": [
                        {
                          "system": "http://terminology.hl7.org/CodeSystem/data-absent-reason",
                          "code": "unknown",
                          "display": "Unknown"
                        }
                      ]
                    }
                  }
                ]
              },
              "subject": {
                "reference": "http://localhost:4080/administration/Patient/574f117e-4003-49ff-b5ac-4e3ae527e37b"
              },
              "performer": [
                {
                  "actor": {
                    "display": "ausländische Einrichtung"
                  }
                }
              ],
              "bodySite": [
                {
                  "coding": [
                    {
                      "system": "http://uk-koeln.de/fhir/CodeSystem/nngm/Strahlentherapie_Bestrahlungsziel",
                      "code": "Knochen",
                      "display": "Knochen"
                    }
                  ]
                },
                {
                  "coding": [
                    {
                      "system": "http://uk-koeln.de/fhir/CodeSystem/nngm/Strahlentherapie_Bestrahlungsziel",
                      "code": "Mediastinum",
                      "display": "Mediastinum"
                    }
                  ]
                },
                {
                  "coding": [
                    {
                      "system": "http://terminology.hl7.org/CodeSystem/data-absent-reason",
                      "code": "not-applicable",
                      "display": "Not Applicable"
                    }
                  ]
                }
              ],
              "reasonCode": [
                {
                  "coding": [
                    {
                      "system": "http://terminology.hl7.org/CodeSystem/data-absent-reason",
                      "code": "unknown",
                      "display": "Unknown"
                    }
                  ]
                }
              ],
              "extension": [
                {
                  "url": "http://uk-koeln.de/fhir/StructureDefinition/Extension/nNGM/strahlentherapie-dosis",
                  "extension": [
                    {
                      "url": "einzeldosis",
                      "valueQuantity": {
                        "value": 2,
                        "system": "http://unitsofmeasure.org",
                        "code": "Gy"
                      }
                    },
                    {
                      "url": "gesamtdosis",
                      "valueQuantity": {
                        "value": 1,
                        "system": "http://unitsofmeasure.org",
                        "code": "Gy"
                      }
                    },
                    {
                      "url": "boost",
                      "valueBoolean": false
                    },
                    {
                      "url": "boostdosis",
                      "valueQuantity": {
                        "value": 2,
                        "system": "http://unitsofmeasure.org",
                        "code": "Gy"
                      }
                    }
                  ]
                }
              ],
              "statusReason": {
                "coding": [
                  {
                    "system": "https://www.uk-koeln.de/nngm/CodeSystem/ST_Ende_Grund",
                    "code": "Abbruch wegen Progress"
                  },
                  {
                    "system": "https://www.uk-koeln.de/nngm/CodeSystem/ST_Ende_Grund",
                    "code": "Ablehnung durch den Patienten"
                  },
                  {
                    "system": "https://www.uk-koeln.de/nngm/CodeSystem/ST_Ende_Grund",
                    "code": "Sonstiges"
                  },
                  {
                    "system": "http://terminology.hl7.org/CodeSystem/data-absent-reason",
                    "code": "not-applicable"
                  }
                ]
              },
              "status": "unknown",
              "note": [
                {
                  "text": "ST1 Bem"
                }
              ],
              "id": "bee5502b-6ffa-4c70-b1fd-fbcfedbcaeb7"
            },
            "request": {
              "method": "PUT",
              "url": "Procedure/bee5502b-6ffa-4c70-b1fd-fbcfedbcaeb7"
            }
          },
          {
            "resource": {
              "resourceType": "EpisodeOfCare",
              "meta": {
                "profile": [
                  "http://uk-koeln.de/fhir/StructureDefinition/EpisodeOfCare/nNGM"
                ]
              },
              "identifier": [
                {
                  "system": "http://uk-koeln.de/NamingSystem/nNGM/fallnummer",
                  "_value": {
                    "extension": [
                      {
                        "url": "http://hl7.org/fhir/StructureDefinition/data-absent-reason",
                        "valueCode": "not-asked"
                      }
                    ]
                  }
                }
              ],
              "status": "active",
              "patient": {
                "reference": "http://localhost:4080/administration/Patient/574f117e-4003-49ff-b5ac-4e3ae527e37b"
              },
              "extension": [
                {
                  "url": "http://uk-koeln.de/fhir/StructureDefinition/Extension/nNGM/datumProgress",
                  "valueDate": "2008-08-08"
                }
              ],
              "id": "be2ab755-e547-4481-8955-c6cedb0057c1"
            },
            "request": {
              "method": "PUT",
              "url": "EpisodeOfCare/be2ab755-e547-4481-8955-c6cedb0057c1"
            }
          },
          {
            "resource": {
              "resourceType": "Procedure",
              "meta": {
                "profile": [
                  "http://uk-koeln.de/fhir/StructureDefinition/Procedure/nNGM/SonstigeTherapie"
                ]
              },
              "status": "unknown",
              "subject": {
                "reference": "http://localhost:4080/administration/Patient/574f117e-4003-49ff-b5ac-4e3ae527e37b"
              },
              "code": {
                "coding": [
                  {
                    "system": "http://ncit.nci.nih.gov",
                    "code": "C15645"
                  }
                ]
              },
              "category": {
                "coding": [
                  {
                    "system": "http://uk-koeln.de/fhir/CodeSystem/nngm/SonstigeTherapieArtDerTherapie",
                    "code": "keine Therapie / Best Supportive Care"
                  }
                ]
              },
              "performedPeriod": {
                "start": "2006-06-06",
                "end": "2007-07-07"
              },
              "performer": [
                {
                  "actor": {
                    "display": "niedergelassene Einrichtung - beides"
                  }
                }
              ],
              "reasonCode": [
                {
                  "extension": [
                    {
                      "url": "http://uk-koeln.de/fhir/StructureDefinition/Extension/nNGM/grund-keine-therapie",
                      "valueCodeableConcept": {
                        "coding": [
                          {
                            "system": "http://uk-koeln.de/fhir/CodeSystem/nngm/SonstigeTherapieGrundKeineTherapie",
                            "code": "N/A"
                          }
                        ]
                      }
                    }
                  ]
                }
              ],
              "note": [
                {
                  "text": "SO1 Bem"
                }
              ],
              "id": "1cc760d8-2f9d-41e9-950a-84f38f32019c"
            },
            "request": {
              "method": "PUT",
              "url": "Procedure/1cc760d8-2f9d-41e9-950a-84f38f32019c"
            }
          },
          {
            "resource": {
              "resourceType": "Procedure",
              "meta": {
                "profile": [
                  "http://uk-koeln.de/fhir/StructureDefinition/Procedure/nNGM/OP"
                ]
              },
              "status": "unknown",
              "subject": {
                "reference": "http://localhost:4080/administration/Patient/574f117e-4003-49ff-b5ac-4e3ae527e37b"
              },
              "code": {
                "coding": [
                  {
                    "system": "http://ncit.nci.nih.gov",
                    "code": "C15329"
                  }
                ],
                "extension": [
                  {
                    "url": "http://uk-koeln.de/fhir/StructureDefinition/Extension/nNGM/art-des-eingriffs",
                    "valueCodeableConcept": {
                      "coding": [
                        {
                          "system": "http://terminology.hl7.org/CodeSystem/data-absent-reason",
                          "code": "unknown"
                        }
                      ]
                    }
                  },
                  {
                    "url": "http://uk-koeln.de/fhir/StructureDefinition/Extension/nNGM/resektion",
                    "extension": [
                      {
                        "url": "resektionsart",
                        "valueCodeableConcept": {
                          "coding": [
                            {
                              "system": "http://uk-koeln.de/fhir/CodeSystem/nngm/OperationArtResektion",
                              "code": "Resektion des Primarius"
                            }
                          ]
                        }
                      },
                      {
                        "url": "resektionsart",
                        "valueCodeableConcept": {
                          "coding": [
                            {
                              "system": "http://terminology.hl7.org/CodeSystem/data-absent-reason",
                              "code": "unknown"
                            }
                          ]
                        }
                      },
                      {
                        "url": "resektionsstatus",
                        "valueCodeableConcept": {
                          "coding": [
                            {
                              "system": "http://terminology.hl7.org/CodeSystem/data-absent-reason",
                              "code": "unknown"
                            }
                          ]
                        }
                      }
                    ]
                  }
                ]
              },
              "performer": [
                {
                  "actor": {
                    "display": "Andere"
                  }
                }
              ],
              "performedDateTime": "2001-03-03",
              "reasonCode": [
                {
                  "coding": [
                    {
                      "system": "http://uk-koeln.de/fhir/CodeSystem/nngm/intention-therapie",
                      "code": "Revision/Komplikation"
                    }
                  ]
                }
              ],
              "extension": [
                {
                  "url": "http://uk-koeln.de/fhir/StructureDefinition/Extension/nNGM/lymphadenektomie",
                  "valueBoolean": false
                }
              ],
              "bodySite": [
                {
                  "coding": [
                    {
                      "system": "http://uk-koeln.de/fhir/CodeSystem/nNGM/OperationLokalisation",
                      "code": "Leber"
                    }
                  ]
                },
                {
                  "extension": [
                    {
                      "url": "http://uk-koeln.de/fhir/StructureDefinition/Extension/nNGM/seitenlokalisation",
                      "valueCodeableConcept": {
                        "coding": [
                          {
                            "system": "http://terminology.hl7.org/CodeSystem/data-absent-reason",
                            "code": "unknown"
                          }
                        ]
                      }
                    }
                  ]
                }
              ],
              "note": [
                {
                  "text": "OP2 Bem"
                }
              ],
              "id": "7976706b-2f00-4077-8a17-862e37b44cef"
            },
            "request": {
              "method": "PUT",
              "url": "Procedure/7976706b-2f00-4077-8a17-862e37b44cef"
            }
          },
          {
            "resource": {
              "resourceType": "MedicationAdministration",
              "meta": {
                "profile": [
                  "http://uk-koeln.de/fhir/StructureDefinition/Procedure/nNGM/MedicationAdministration"
                ]
              },
              "subject": {
                "reference": "http://localhost:4080/administration/Patient/574f117e-4003-49ff-b5ac-4e3ae527e37b"
              },
              "category": {
                "coding": [
                  {
                    "system": "http://ncit.nci.nih.gov",
                    "code": "C85582"
                  }
                ]
              },
              "context": {
                "identifier": {
                  "system": "http://www.acme.com/identifiers/patient",
                  "value": "222"
                }
              },
              "statusReason": [
                {
                  "coding": [
                    {
                      "system": "http://terminology.hl7.org/CodeSystem/data-absent-reason",
                      "code": "not-applicable"
                    }
                  ]
                }
              ],
              "status": "unknown",
              "supportingInformation": [
                {
                  "display": "Tinfo2"
                },
                {
                  "extension": [
                    {
                      "url": "http://uk-koeln.de/fhir/StructureDefinition/Extension/nNGM/therapieinformationen",
                      "extension": [
                        {
                          "url": "hilfreich",
                          "valueBoolean": true
                        }
                      ]
                    }
                  ]
                },
                {
                  "extension": [
                    {
                      "url": "http://uk-koeln.de/fhir/StructureDefinition/Extension/nNGM/therapieinformationen",
                      "extension": [
                        {
                          "url": "umgesetzt",
                          "valueBoolean": false
                        }
                      ]
                    }
                  ]
                },
                {
                  "extension": [
                    {
                      "url": "http://uk-koeln.de/fhir/StructureDefinition/Extension/nNGM/therapieinformationen",
                      "extension": [
                        {
                          "url": "nichtumsetzungGrund",
                          "valueCodeableConcept": {
                            "coding": [
                              {
                                "system": "http://uk-koeln.de/fhir/CodeSystem/nngm/SystemischeTherapieGrundNichtumsetzung",
                                "code": "Logistischer Aufwand"
                              }
                            ]
                          }
                        }
                      ]
                    }
                  ]
                }
              ],
              "performer": [
                {
                  "actor": {
                    "display": "anderes Krankenhaus - Strahlentherapie"
                  }
                }
              ],
              "reasonCode": [
                {
                  "coding": [
                    {
                      "system": "http://uk-koeln.de/fhir/CodeSystem/nngm/intention-therapie",
                      "code": "Definitiv mit Strahlentherapie",
                      "display": "Definitiv mit Strahlentherapie"
                    }
                  ]
                }
              ],
              "extension": [
                {
                  "url": "http://uk-koeln.de/fhir/StructureDefinition/Extension/cancer-base/studientherapie",
                  "extension": [
                    {
                      "url": "teilnahme",
                      "valueBoolean": true
                    },
                    {
                      "url": "studie",
                      "valueReference": {
                        "reference": "http://localhost:4080/administration/1167",
                        "display": "1167"
                      }
                    },
                    {
                      "url": "medikament",
                      "valueCodeableConcept": {
                        "coding": [
                          {
                            "system": "http://uk-koeln.de/fhir/CodeSystem/nNGM/SystemischeTherapieMedikation",
                            "code": "nab-Paclitaxel/Atezolizumab/Bevacizumab"
                          }
                        ]
                      }
                    }
                  ]
                },
                {
                  "url": "http://uk-koeln.de/fhir/StructureDefinition/Extension/nNGM/OffLabelTherapie",
                  "valueBoolean": true
                },
                {
                  "url": "http://uk-koeln.de/fhir/StructureDefinition/Extension/erhaltungstherapie",
                  "extension": [
                    {
                      "url": "option",
                      "valueBoolean": true
                    }
                  ]
                }
              ],
              "effectivePeriod": {
                "start": "2002-04-04",
                "end": "2002-05-05"
              },
              "medicationCodeableConcept": {
                "coding": [
                  {
                    "system": "http://uk-koeln.de/fhir/CodeSystem/nNGM/SystemischeTherapieMedikation",
                    "code": "Carboplatin/nab-Paclitaxel/Bevacizumab/Atezolizumab"
                  }
                ]
              },
              "note": [
                {
                  "text": "SY2 bem"
                }
              ],
              "id": "42c6b0ac-db9e-4404-addd-7a15e9c84668"
            },
            "request": {
              "method": "PUT",
              "url": "MedicationAdministration/42c6b0ac-db9e-4404-addd-7a15e9c84668"
            }
          },
          {
            "resource": {
              "resourceType": "Observation",
              "meta": {
                "profile": [
                  "http://uk-koeln.de/fhir/StructureDefinition/Observation/nNGM/ecog"
                ]
              },
              "status": "final",
              "category": [
                {
                  "coding": [
                    {
                      "system": "http://terminology.hl7.org/CodeSystem/observation-category",
                      "code": "survey"
                    }
                  ]
                }
              ],
              "code": {
                "coding": [
                  {
                    "system": "http://loinc.org",
                    "code": "89247-1"
                  }
                ]
              },
              "subject": {
                "reference": "http://localhost:4080/administration/Patient/574f117e-4003-49ff-b5ac-4e3ae527e37b"
              },
              "valueCodeableConcept": {
                "coding": [
                  {
                    "system": "urn:oid:1.2.276.0.76.3.1.131.1.5.153",
                    "code": "3",
                    "display": "ECOG 3: (Nur begrenzte Selbstversorgung möglich; ist 50% oder mehr der Wachzeit an Bett oder Stuhl gebunden)"
                  }
                ]
              },
              "id": "c3ab388e-666d-42ff-8486-6cdfb0197fde"
            },
            "request": {
              "method": "PUT",
              "url": "Observation/c3ab388e-666d-42ff-8486-6cdfb0197fde"
            }
          },
          {
            "resource": {
              "resourceType": "Observation",
              "meta": {
                "profile": [
                  "http://uk-koeln.de/fhir/StructureDefinition/Observation/nNGM/best-response"
                ]
              },
              "status": "unknown",
              "category": [
                {
                  "coding": [
                    {
                      "system": "http://terminology.hl7.org/CodeSystem/observation-category",
                      "code": "therapy"
                    }
                  ]
                }
              ],
              "code": {
                "coding": [
                  {
                    "system": "http://ncit.nci.nih.gov",
                    "code": "C94536"
                  }
                ]
              },
              "subject": {
                "reference": "http://localhost:4080/administration/Patient/574f117e-4003-49ff-b5ac-4e3ae527e37b"
              },
              "valueCodeableConcept": {
                "coding": [
                  {
                    "system": "http://uk-koeln.de/fhir/CodeSystem/nngm/SystemischeTherapieDivergentesGeschehen",
                    "code": "Divergentes Geschehen (nach RECIST nicht möglich)",
                    "display": "Divergentes Geschehen (nach RECIST nicht möglich)"
                  }
                ]
              },
              "method": {
                "coding": [
                  {
                    "system": "http://uk-koeln.de/fhir/CodeSystem/nngm/SystemischeTherapieBeurteilungNach",
                    "code": "RECIST"
                  }
                ]
              },
              "partOf": [
                {
                  "reference": "http://localhost:4080/administration/MedicationAdministration/42c6b0ac-db9e-4404-addd-7a15e9c84668"
                }
              ],
              "id": "55d0ca52-e2c0-47ce-ab85-cf1f56f756fa"
            },
            "request": {
              "method": "PUT",
              "url": "Observation/55d0ca52-e2c0-47ce-ab85-cf1f56f756fa"
            }
          },
          {
            "resource": {
              "resourceType": "Procedure",
              "meta": {
                "profile": [
                  "http://uk-koeln.de/fhir/StructureDefinition/Procedure/nNGM/Strahlentherapie"
                ]
              },
              "category": {
                "coding": [
                  {
                    "system": "http://uk-koeln.de/fhir/CodeSystem/cancer-base/procedure-category",
                    "code": "radiotherapy"
                  }
                ]
              },
              "code": {
                "coding": [
                  {
                    "system": "http://ncit.nci.nih.gov",
                    "code": "C15313"
                  }
                ],
                "extension": [
                  {
                    "url": "http://uk-koeln.de/fhir/StructureDefinition/Extension/nNGM/art-der-bestrahlung",
                    "valueCodeableConcept": {
                      "coding": [
                        {
                          "system": "http://uk-koeln.de/fhir/CodeSystem/nNGM/StrahlentherapieArtDerBestrahlung",
                          "code": "Seed Implantation",
                          "display": "Seed Implantation"
                        }
                      ]
                    }
                  }
                ]
              },
              "subject": {
                "reference": "http://localhost:4080/administration/Patient/574f117e-4003-49ff-b5ac-4e3ae527e37b"
              },
              "performer": [
                {
                  "actor": {
                    "display": "Andere"
                  }
                }
              ],
              "performedPeriod": {
                "start": "2009-09-09",
                "end": "2010-10-10"
              },
              "bodySite": [
                {
                  "coding": [
                    {
                      "system": "http://uk-koeln.de/fhir/CodeSystem/nngm/Strahlentherapie_Bestrahlungsziel",
                      "code": "Primärtumorregion",
                      "display": "Primärtumorregion"
                    }
                  ]
                }
              ],
              "reasonCode": [
                {
                  "coding": [
                    {
                      "system": "http://uk-koeln.de/fhir/CodeSystem/nngm/intention-therapie",
                      "code": "Sonstiges",
                      "display": "Sonstiges"
                    }
                  ]
                }
              ],
              "extension": [
                {
                  "url": "http://uk-koeln.de/fhir/StructureDefinition/Extension/nNGM/strahlentherapie-dosis",
                  "extension": [
                    {
                      "url": "boost",
                      "valueBoolean": true
                    },
                    {
                      "url": "boostdosis",
                      "valueQuantity": {
                        "value": 76.2,
                        "system": "http://unitsofmeasure.org",
                        "code": "Gy"
                      }
                    }
                  ]
                }
              ],
              "statusReason": {
                "coding": [
                  {
                    "system": "https://www.uk-koeln.de/nngm/CodeSystem/ST_Ende_Grund",
                    "code": "Reguläres Ende"
                  },
                  {
                    "system": "http://terminology.hl7.org/CodeSystem/data-absent-reason",
                    "code": "not-applicable"
                  }
                ]
              },
              "status": "unknown",
              "note": [
                {
                  "text": "ST2 bem"
                }
              ],
              "id": "b93e8231-325a-4ea1-a54a-3a45a57b50dd"
            },
            "request": {
              "method": "PUT",
              "url": "Procedure/b93e8231-325a-4ea1-a54a-3a45a57b50dd"
            }
          },
          {
            "resource": {
              "resourceType": "Procedure",
              "meta": {
                "profile": [
                  "http://uk-koeln.de/fhir/StructureDefinition/Procedure/nNGM/SonstigeTherapie"
                ]
              },
              "status": "unknown",
              "subject": {
                "reference": "http://localhost:4080/administration/Patient/574f117e-4003-49ff-b5ac-4e3ae527e37b"
              },
              "code": {
                "coding": [
                  {
                    "system": "http://ncit.nci.nih.gov",
                    "code": "C15645"
                  }
                ]
              },
              "category": {
                "coding": [
                  {
                    "system": "http://uk-koeln.de/fhir/CodeSystem/nngm/SonstigeTherapieArtDerTherapie",
                    "code": "anderes Verfahren"
                  }
                ]
              },
              "performer": [
                {
                  "actor": {
                    "display": "niedergelassene Einrichtung - Chirurgie"
                  }
                }
              ],
              "reasonCode": [
                {
                  "coding": [
                    {
                      "system": "http://ncit.nci.nih.gov",
                      "code": "C17649",
                      "display": "Other"
                    }
                  ]
                },
                {
                  "coding": [
                    {
                      "system": "http://ncit.nci.nih.gov",
                      "code": "C17649",
                      "display": "Other"
                    }
                  ]
                },
                {
                  "text": "other"
                }
              ],
              "extension": [
                {
                  "url": "http://uk-koeln.de/fhir/StructureDefinition/Extension/nNGM/maintenance",
                  "valueBoolean": true
                }
              ],
              "note": [
                {
                  "text": "SO2 bem"
                }
              ],
              "id": "f0bd7ddb-0eee-4035-a040-81a6797bbc7d"
            },
            "request": {
              "method": "PUT",
              "url": "Procedure/f0bd7ddb-0eee-4035-a040-81a6797bbc7d"
            }
          }
        ],
        "id": "8aa0cda0-4429-467c-80ef-6d505d53f96a",
        "type": "transaction"
      }
    }
  ]
}
